#timestamp [ns],w_RS_S_x [rad s^-1],w_RS_S_y [rad s^-1],w_RS_S_z [rad s^-1],a_RS_S_x [m s^-2],a_RS_S_y [m s^-2],a_RS_S_z [m s^-2]
1764757958893293568,-0.002064621,0.009440080,0.009013432,0.225221981,0.321835292,9.806466780
1764757958898502144,0.001165342,0.008968051,0.013209240,0.138696289,0.281510442,9.789241216
1764757958903709440,0.001408943,0.008004516,0.009532370,0.224421514,0.236158678,9.759852055
1764757958908939264,0.002220786,0.007843381,0.009284997,0.235783180,0.247694293,9.839089569
1764757958914172928,0.003404164,0.007533057,0.008310399,0.194463636,0.315876350,9.701605870
1764757958919383040,0.001250574,0.008295100,0.008376386,0.160597136,0.327882317,9.679197467
1764757958924574464,0.003031710,0.010935122,0.011551892,0.184095180,0.298179326,9.817590423
1764757958929772288,0.002166447,0.008602568,0.011150636,0.172544504,0.294066449,9.827829107
1764757958934978816,0.003909735,0.006889325,0.005974663,0.253549703,0.300839964,9.779136196
1764757958940155904,0.002712040,0.006618845,0.008232360,0.207827108,0.305099878,9.723074348
1764757958945334272,0.003242370,0.005273951,0.008009583,0.215659657,0.212699646,9.811172290
1764757958950482176,0.003082754,0.009086034,0.008482014,0.234956401,0.281597232,9.743958878
1764757958955653888,0.003116477,0.008353180,0.007741459,0.124907277,0.231071021,9.891738023
1764757958960835072,0.000772255,0.006211972,0.006966249,0.239553601,0.259985860,9.812334564
1764757958966002688,0.002281579,0.008389222,0.007484760,0.232253965,0.296441541,9.729330088
1764757958971173632,0.000802902,0.008232368,0.004110015,0.169464284,0.251796225,9.744546136
1764757958976373248,0.004664643,0.009643721,0.005098761,0.269442538,0.262116198,9.717286250
1764757958981587712,0.003716125,0.008078814,0.008975996,0.134634411,0.321757231,9.734006167
1764757958986820352,0.003154658,0.009582839,0.006017637,0.243867232,0.305259131,9.776983896
1764757958992014080,0.003985263,0.010165819,0.006874825,0.215211514,0.409913140,9.734280692
1764757958997221120,0.002957281,0.009064128,0.005106757,0.088886704,0.250330883,9.645351916
1764757959002401792,0.004133702,0.006776198,0.008524594,0.204382838,0.321838470,9.728218223
1764757959007553536,0.005697200,0.007429126,0.007094953,0.215835850,0.283637281,9.750310007
1764757959012775168,0.004649194,0.009507899,0.005525516,0.238060758,0.227383889,9.779002042
1764757959017922560,0.000529021,0.010657028,0.009159290,0.125501029,0.283806657,9.755901170
1764757959023095808,0.001112170,0.006618042,0.007377432,0.224070223,0.310301497,9.724565487
1764757959028227840,0.002003624,0.009683123,0.005535166,0.172325070,0.237650099,9.673979860
1764757959033420288,0.002282550,0.006374141,0.002638792,0.138014772,0.344099171,9.800871434
1764757959038576384,0.002145261,0.009319149,0.003982806,0.179284802,0.268728725,9.763360021
1764757959043814912,0.003720348,0.010563278,0.005600013,0.230123592,0.291209030,9.672246607
1764757959048995584,0.003704704,0.006918072,0.009919687,0.309158210,0.285066518,9.793371767
1764757959054145536,0.002264010,0.011579785,0.006645758,0.236189383,0.401334301,9.684207771
1764757959059331072,0.004233166,0.008752883,0.008495754,0.260086762,0.364741383,9.793897057
1764757959064974592,-0.001023779,0.010065669,0.005796930,0.182398039,0.361155499,9.756477293
1764757959070141952,0.002854498,0.009389837,0.002906018,0.267315237,0.405502164,9.666738939
1764757959075323904,0.004664700,0.011729706,0.007650226,0.316914417,0.347029176,9.751066399
1764757959080854272,0.001067965,0.010426741,0.006624083,0.270727535,0.330396108,9.776499537
1764757959086029824,0.003065904,0.011479346,0.006516603,0.305370837,0.404955923,9.771394375
1764757959091254016,0.001286620,0.006635872,0.006924453,0.354142619,0.368433759,9.747416442
1764757959096424704,0.005300113,0.010940423,0.003323292,0.272136665,0.409375367,9.634837848
1764757959101618432,0.000588635,0.010538865,0.005012732,0.246340243,0.426905910,9.698404039
1764757959106774272,0.001381648,0.009595777,0.005986104,0.261863334,0.388502979,9.675795198
1764757959111935488,0.006008946,0.010348734,0.006342708,0.269026140,0.376934462,9.757663011
1764757959117088768,0.001767251,0.010428685,0.004898091,0.241679095,0.273658123,9.766240101
1764757959122238464,0.001702432,0.008682988,0.003947199,0.241673597,0.411942534,9.763645996
1764757959127405568,0.002782043,0.008492321,0.010172183,0.242424338,0.395310794,9.710531509
1764757959132608000,0.003588098,0.008769608,0.006238954,0.381363741,0.401634096,9.793146162
1764757959137804288,0.004615590,0.012050878,0.006612265,0.244847114,0.430921458,9.719392535
1764757959142982400,0.003934677,0.009851142,0.006521304,0.334850868,0.364663112,9.796518870
1764757959148151040,0.003737495,0.008082678,0.005757097,0.329609593,0.285441337,9.790174788
1764757959153350144,0.004002420,0.008253086,0.003632367,0.234492350,0.472498109,9.731936642
1764757959158515712,0.004677841,0.008142373,0.001840366,0.357303169,0.285579910,9.714741551
1764757959163769856,0.004715279,0.011672932,0.005716079,0.423578372,0.365248096,9.697867907
1764757959168986368,0.000444691,0.003888014,0.006942782,0.214610653,0.295499430,9.750739866
1764757959174205184,0.003992350,0.007970122,0.005220817,0.329244552,0.361567601,9.673730567
1764757959179363584,0.003557010,0.007634102,0.006084571,0.331227890,0.335545043,9.756545742
1764757959184522240,0.004833013,0.004045458,0.004908278,0.371970047,0.452615578,9.670309504
1764757959189641472,0.006998000,0.008973773,0.005339103,0.380536816,0.373560770,9.681769366
1764757959194712320,0.006886751,0.006668209,0.004391173,0.357635391,0.368426890,9.609260873
1764757959199851008,0.005310765,0.004904281,0.004440300,0.315815477,0.421726238,9.734967612
1764757959204987392,0.004766857,0.008287527,0.005063947,0.279465736,0.342971959,9.747498532
1764757959210163200,0.003022480,0.007908759,0.002802496,0.351893179,0.364282283,9.768085110
1764757959215315712,0.005149982,0.006382853,0.002534560,0.335092736,0.338661791,9.691357181
1764757959220443392,0.005311934,0.007820363,0.002423871,0.303266571,0.362716433,9.688495870
1764757959225574144,0.006129645,0.006046760,0.004756817,0.368693750,0.474287773,9.778546078
1764757959230762496,0.004990708,0.007405655,0.007173786,0.371174416,0.372052154,9.746682473
1764757959235910912,0.005797632,0.008971153,0.007098298,0.201355393,0.364560418,9.678659575
1764757959241051136,0.005627945,0.012200752,0.002265139,0.247615852,0.331816943,9.718730359
1764757959246154752,0.004040931,0.008219413,0.006659613,0.366877819,0.411746492,9.771364650
1764757959251279872,0.007928940,0.008081160,0.004539737,0.470134271,0.382515174,9.729125348
1764757959256378368,0.004427395,0.007039580,0.001310774,0.371131325,0.384861847,9.769033169
1764757959261476864,0.006464654,0.001227340,0.000909442,0.331467259,0.403840571,9.748997798
1764757959266623488,0.006604340,0.007417749,0.000055186,0.327633747,0.357798119,9.697512304
1764757959271763968,0.003801689,0.009356747,0.003581793,0.275319924,0.347269265,9.741528789
1764757959276940800,0.003958187,0.004998178,0.005107906,0.336472801,0.368460728,9.705688525
1764757959282260736,0.000558787,0.008168282,0.000988115,0.370015887,0.385852832,9.739289168
1764757959287464960,0.004074438,0.008205416,0.003482367,0.330397401,0.330562332,9.755356582
1764757959292682240,0.007420700,0.010943864,0.002624435,0.393138990,0.366706109,9.694333310
1764757959297936384,0.005686297,0.009260095,0.003088800,0.343787207,0.288650226,9.735823387
1764757959303149824,0.002730034,0.005915126,0.002998008,0.351069375,0.426495768,9.752165527
1764757959308353536,0.005914994,0.010906017,0.005183841,0.378774750,0.440899466,9.720341879
1764757959313542912,0.005074120,0.009022382,0.002234162,0.322877720,0.371568384,9.650294378
1764757959318787584,0.008237467,0.008625947,0.003025343,0.345046182,0.491099515,9.623516395
1764757959324025344,0.008991145,0.005162512,0.001371824,0.391816268,0.487128401,9.674722927
1764757959329320192,0.004952540,0.010163469,0.000788035,0.359473632,0.395237520,9.702247486
1764757959334468352,0.002935990,0.008568986,-0.001419818,0.312149033,0.438110431,9.644527101
1764757959339629568,0.002096804,0.009014817,0.000518503,0.368388137,0.466597233,9.706808535
1764757959344724992,0.003110456,0.010089076,0.003372411,0.422832726,0.385932004,9.596078348
1764757959349873664,0.006579190,0.007767269,0.000487953,0.400144620,0.358364706,9.682101244
1764757959355028992,0.007359286,0.008478605,0.003493695,0.345401697,0.498394595,9.650521932
1764757959360175104,0.007312527,0.006692855,-0.000111179,0.343372818,0.422896827,9.586279234
1764757959365396480,0.006926917,0.008134482,-0.000343778,0.465450177,0.464644620,9.630559508
1764757959370592000,0.006042527,0.006828113,0.000748193,0.414551965,0.414217037,9.746338725
1764757959375764224,0.010078536,0.007620409,0.000829768,0.421619365,0.434395084,9.669803061
1764757959380952576,0.005286199,0.008892661,-0.001103187,0.318198635,0.439317664,9.726295206
1764757959386199040,0.008416021,0.004632661,0.002516426,0.383567785,0.403806450,9.769715694
1764757959391438336,0.005364855,0.008729752,-0.002552722,0.354469104,0.485701950,9.641784849
1764757959396639488,0.003698723,0.009457433,-0.000880772,0.337623382,0.416598181,9.745188033
1764757959401806336,0.003246984,0.007277854,0.001543562,0.327370127,0.493888295,9.693954818
1764757959407012352,0.007858141,0.006622615,0.001171404,0.525854567,0.401754776,9.789491740
1764757959412201984,0.006168379,0.009651578,-0.001710036,0.372971606,0.386988035,9.697126759
1764757959417319168,0.009144293,0.005829181,0.001128978,0.400921734,0.535286129,9.754628040
1764757959422422784,0.007557317,0.007922091,0.002176387,0.477774998,0.451278069,9.758168519
1764757959427554560,0.008955112,0.006311540,-0.000967337,0.351876720,0.429393362,9.687891252
1764757959432774144,0.006926307,0.006246164,-0.002732463,0.442914656,0.415220233,9.686920308
1764757959437905152,0.005281670,0.004658489,0.000020794,0.410857229,0.482149062,9.708033567
1764757959443057152,0.004648055,0.009824347,0.000953018,0.233415531,0.441878681,9.773515073
1764757959448137984,0.007863308,0.003180788,-0.003383030,0.403724226,0.449573649,9.776950640
1764757959453232128,0.006637386,0.009654450,-0.003296611,0.433030498,0.475986135,9.743937426
1764757959458358528,0.008308450,0.009672763,-0.002467674,0.408895660,0.460886866,9.859633381
1764757959463516160,0.005985457,0.005508375,-0.002458328,0.363868598,0.498171272,9.666299055
1764757959468780544,0.007275688,0.006481102,-0.003013298,0.470137052,0.468697705,9.719849591
1764757959474012160,0.006764873,0.003890193,0.001389615,0.373906962,0.473697085,9.759820990
1764757959479207424,0.005176128,0.004782391,0.000714073,0.433925982,0.441281683,9.701775205
1764757959484389376,0.006764517,0.007544017,-0.003382035,0.405189870,0.496709739,9.735301231
1764757959489546752,0.007700853,0.006523364,-0.000842490,0.488414652,0.416343871,9.715558720
1764757959494725120,0.006530845,0.003557636,-0.001176750,0.394887778,0.440376665,9.884089332
1764757959499884288,0.005878787,0.002915178,-0.003944333,0.364163199,0.350082142,9.712904351
1764757959505008128,0.007787058,0.004982307,-0.001991291,0.338749929,0.491823509,9.644462859
1764757959510173440,0.007235539,0.009881754,-0.000864035,0.406698751,0.456813490,9.698921749
1764757959515299584,0.010092819,0.009743725,-0.003825851,0.466732721,0.402143629,9.691649752
1764757959520414464,0.006530215,0.007353010,-0.001576147,0.421338867,0.462097919,9.731991944
1764757959525628928,0.009050208,0.006442822,-0.001920173,0.346365415,0.532973458,9.701705307
1764757959530857216,0.008538012,0.006805348,-0.001448827,0.472001439,0.515504556,9.758749421
1764757959536099584,0.006831077,0.007322662,-0.000176134,0.441335315,0.465265109,9.784151319
1764757959541336320,0.004174024,0.007132264,-0.005015620,0.343226854,0.422652601,9.773608655
1764757959546569728,0.007786364,0.008180974,-0.001749396,0.359867959,0.435567228,9.756928425
1764757959551826688,0.005528591,0.007321638,-0.004490727,0.391436725,0.404730231,9.737863887
1764757959556950272,0.007918866,0.005760016,-0.001422983,0.420419165,0.387388113,9.766560746
1764757959562087680,0.007519077,0.009985138,-0.003250271,0.435379582,0.497957264,9.705338319
1764757959567284736,0.010420413,0.006503455,-0.003411655,0.328352528,0.510440965,9.688047797
1764757959572513024,0.007268511,0.004868500,-0.003225548,0.406810114,0.488904127,9.694767718
1764757959577797376,0.006542978,0.006101384,-0.005966483,0.432273977,0.477288335,9.765844013
1764757959582947072,0.008827064,0.007075948,-0.000167395,0.361320804,0.387030778,9.705701055
1764757959588090368,0.009828802,0.008075487,-0.003075075,0.403323511,0.527505421,9.755776845
1764757959593245952,0.002976142,0.008400675,-0.003164752,0.471185679,0.361799419,9.790212138
1764757959598422272,0.005811114,0.008866452,-0.002118789,0.445967985,0.466756397,9.738395078
1764757959603572224,0.007789656,0.006425060,-0.005074106,0.347169705,0.517899090,9.721242300
1764757959608687616,0.005076721,0.009269335,-0.005911023,0.388265929,0.555782042,9.742855272
1764757959613820416,0.010191110,0.005681731,-0.008124978,0.402446965,0.464455523,9.709399735
1764757959618981376,0.010950811,0.008074219,-0.005018407,0.374590111,0.445177501,9.721663292
1764757959624120832,0.008471626,0.007108332,-0.004897396,0.428296036,0.502016679,9.645202963
1764757959629303296,0.006657031,0.006744835,-0.004638745,0.355863189,0.453096946,9.788921060
1764757959634462464,0.006848808,0.004671604,-0.003674834,0.415828252,0.462186467,9.756048761
1764757959639618560,0.007105659,0.005893241,-0.008834462,0.344886702,0.489664657,9.798415262
1764757959644755712,0.008410171,0.009337088,-0.003532022,0.404928963,0.425880385,9.740686934
1764757959649872896,0.006247127,0.006938748,-0.005464497,0.396244244,0.439323388,9.714347556
1764757959654995968,0.006597594,0.005390311,-0.004929529,0.373492074,0.567042514,9.855239737
1764757959660228864,0.010272187,0.005138956,-0.004716082,0.383876107,0.471788421,9.850152526
1764757959665366272,0.010784256,0.003690733,-0.004236152,0.393458451,0.479982160,9.752450807
1764757959670495232,0.007545257,0.007650598,-0.005672599,0.392974255,0.417333984,9.751268719
1764757959675765760,0.009909009,0.005952746,-0.005382982,0.346175517,0.452138476,9.782441940
1764757959680948480,0.005996748,0.005233533,-0.006814162,0.436722439,0.471270779,9.697035507
1764757959686169088,0.010792840,0.007044985,-0.005887626,0.401378276,0.391141380,9.850346586
1764757959691367168,0.004947825,0.006930243,-0.004572366,0.371550476,0.446369098,9.766349361
1764757959696560896,0.003656586,0.006982927,-0.004321605,0.393106290,0.508671147,9.825151933
1764757959701768192,0.002483583,0.006370196,-0.004135271,0.377836781,0.506574874,9.766452493
1764757959706949888,0.006657961,0.004847497,-0.011626158,0.336812676,0.458524685,9.847697856
1764757959712170496,0.006152372,0.010548986,-0.007517158,0.416055404,0.557873395,9.752111446
1764757959717350912,0.008605436,0.009763756,-0.006185762,0.374615497,0.444247882,9.837342036
1764757959722592256,0.005591232,0.005534045,-0.006442227,0.436640432,0.590430027,9.741803558
1764757959727851264,0.006616853,0.007707099,-0.009743596,0.405547633,0.526474941,9.727856681
1764757959733046272,0.008011128,0.005207356,-0.006395610,0.459409148,0.540529556,9.894945155
1764757959738259712,0.006490237,0.003998328,-0.004243970,0.376133467,0.517660863,9.777277699
1764757959743449856,0.007616683,0.005647124,-0.006150329,0.392655982,0.492338404,9.834452077
1764757959748608512,0.010763359,0.005767732,-0.005853875,0.306857266,0.532816267,9.827498449
1764757959753770240,0.009307534,0.008406994,-0.008787136,0.326919598,0.469952025,9.795321257
1764757959758892544,0.007188608,0.008019118,-0.006726188,0.371718177,0.455705946,9.862075592
1764757959764018432,0.008641393,0.004263286,-0.006458137,0.521950726,0.480744794,9.760179255
1764757959769191168,0.009351776,0.005440763,-0.005327666,0.400568276,0.457931607,9.838356884
1764757959774366208,0.004574675,0.006429212,-0.004806313,0.391644244,0.529677675,9.804950967
1764757959779521024,0.010261254,0.001533644,-0.005118927,0.364781133,0.413235309,9.770265926
1764757959784643584,0.010428325,0.007708374,-0.007009821,0.339951889,0.477231366,9.779175060
1764757959789714944,0.002497113,0.006593264,-0.005833330,0.442480995,0.475043040,9.765183371
1764757959794837504,0.007614853,0.005749926,-0.008269878,0.293359435,0.477238550,9.811879475
1764757959800006144,0.008796286,0.007260354,-0.005141937,0.380504441,0.438693111,9.737326124
1764757959805119744,0.010718417,0.007942801,-0.007226463,0.351034556,0.538323857,9.798689389
1764757959810228736,0.006782611,0.002706524,-0.007486831,0.403090437,0.508684728,9.847382217
1764757959815398400,0.008457031,0.004938668,-0.005996035,0.408093017,0.474851097,9.727198762
1764757959820548352,0.011301674,0.005472480,-0.008703551,0.422128108,0.443382675,9.820984282
1764757959825712384,0.005574273,0.005553849,-0.009175830,0.331254373,0.398535132,9.835828778
1764757959830881536,0.010561722,0.003751692,-0.011667262,0.335409983,0.531006027,9.831676389
1764757959836035584,0.008414432,0.005053659,-0.005768993,0.433351517,0.585917840,9.747580289
1764757959841179392,0.008984366,0.003492722,-0.009210253,0.402350740,0.526754731,9.802606592
1764757959846332416,0.008573695,0.006688646,-0.007422951,0.332601705,0.530429496,9.762536511
1764757959851476480,0.006048648,0.010662304,-0.007847517,0.361176775,0.533168725,9.777519081
1764757959856619776,0.007224642,0.005730918,-0.008862931,0.321216736,0.532775364,9.836428555
1764757959861737984,0.013005982,0.007743274,-0.008282258,0.255367876,0.479842973,9.781900453
1764757959866901248,0.009480557,0.003241348,-0.009324070,0.301961560,0.484936851,9.837413887
1764757959872060416,0.009616516,0.009454133,-0.009516448,0.278444504,0.543117366,9.846784074
1764757959877207552,0.007329205,0.008049805,-0.009814289,0.305603906,0.465574744,9.767248950
1764757959882349056,0.008079591,0.003404449,-0.008574707,0.253861512,0.491510519,9.750959818
1764757959887514112,0.008212072,0.005856781,-0.009545701,0.313967365,0.552650106,9.862876490
1764757959892685312,0.009238058,0.001917226,-0.009423384,0.283501732,0.460567840,9.782661238
1764757959897869312,0.010255782,0.005851709,-0.007217336,0.322298488,0.478419695,9.816051562
1764757959903043328,0.008487246,0.007002448,-0.008110819,0.380449171,0.492570466,9.829578720
1764757959908207104,0.008062071,0.004939679,-0.008698356,0.300305093,0.515569343,9.820560372
1764757959913360640,0.009993207,0.005756070,-0.011655748,0.388088444,0.566648407,9.815092510
1764757959918500864,0.009813127,0.005915871,-0.008237145,0.256244021,0.429244292,9.757902014
1764757959923693568,0.008030143,0.006110810,-0.008036232,0.294724327,0.504901139,9.844820912
1764757959928822272,0.011119312,0.004995090,-0.010141410,0.343285709,0.520653901,9.889187105
1764757959933938432,0.010013905,0.004286647,-0.005568155,0.348516884,0.441909893,9.775256515
1764757959939049472,0.010289850,0.004410804,-0.007639007,0.323684805,0.576178284,9.913480529
1764757959944189696,0.009383013,0.003742831,-0.011397793,0.343567896,0.558588794,9.835195682
1764757959949296640,0.008175339,0.006979916,-0.008033274,0.279475299,0.455251556,9.894817478
1764757959954434816,0.009370748,0.006429448,-0.007071375,0.358175551,0.509507487,9.756772756
1764757959959597568,0.008253619,0.005957588,-0.010918277,0.338260014,0.465287235,9.774340504
1764757959964786688,0.012066703,0.006735033,-0.008499504,0.265049930,0.471208793,9.804638289
1764757959969911808,0.009772996,0.004166241,-0.009454569,0.348577228,0.522860315,9.899171968
1764757959975017472,0.005722421,0.003027592,-0.011837795,0.286633418,0.477180580,9.784556544
1764757959980156672,0.009337722,0.008835983,-0.008979037,0.314173288,0.444132586,9.816677433
1764757959985295360,0.008145024,0.002715262,-0.009562550,0.273330663,0.500751151,9.802552740
1764757959990483200,0.007997311,0.004919398,-0.007763016,0.303981945,0.450737719,9.886036739
1764757959995728896,0.007851097,0.005399375,-0.010492899,0.214977309,0.382976743,9.812980151
1764757960000898816,0.009747846,0.006581315,-0.011392827,0.244939067,0.575730630,9.878169614
1764757960006022144,0.010486517,0.003856648,-0.005801780,0.313437172,0.510090993,9.802952185
1764757960011203328,0.008297661,0.003598462,-0.010412365,0.307913840,0.565687958,9.876689112
1764757960016365312,0.008381755,0.005761965,-0.008314435,0.186770831,0.452006191,9.918671628
1764757960021539328,0.007737417,0.004886684,-0.009568737,0.332189244,0.538835937,9.904885385
1764757960026726144,0.011404180,0.000132297,-0.006357026,0.225882338,0.519656006,9.843119004
1764757960031956992,0.009473058,0.004576009,-0.006165730,0.253507719,0.469206363,9.911455512
1764757960037175808,0.009172868,0.002918526,-0.006569357,0.326061715,0.470573493,9.866232210
1764757960042356480,0.010901183,0.005665398,-0.007257360,0.220476900,0.471101877,9.910074010
1764757960047549440,0.006152515,0.005114529,-0.009247886,0.208768816,0.504081238,9.841260197
1764757960052767488,0.008546345,0.001446474,-0.009895613,0.239693290,0.418001170,9.852345765
1764757960057971456,0.009422503,0.004930762,-0.011883208,0.285051740,0.465281491,9.896722459
1764757960063128832,0.011361370,0.003403099,-0.009966459,0.232685602,0.543755471,9.845351243
1764757960068294656,0.009201807,0.003392185,-0.007472390,0.242872338,0.428442431,9.886350893
1764757960073454336,0.010097895,0.004842748,-0.012613183,0.284448881,0.534477597,9.918691958
1764757960078591232,0.007557509,0.004911948,-0.007875583,0.196280346,0.596443875,9.952366517
1764757960083744000,0.013045598,0.005136486,-0.008324280,0.292034608,0.555306463,9.778242975
1764757960088884480,0.008123138,0.008926285,-0.010625361,0.258182641,0.533333671,9.826590166
1764757960094028032,0.010682677,0.005221012,-0.009721200,0.208335745,0.482456463,9.875542967
1764757960099229184,0.006285850,0.003340506,-0.011952301,0.211231862,0.433726391,9.993606815
1764757960104413440,0.007709193,0.005629585,-0.010681580,0.172405095,0.520475654,9.929702494
1764757960109600256,0.009462674,0.005111132,-0.006885012,0.244561358,0.417399688,9.846942784
1764757960114777088,0.007898581,0.006988163,-0.008425858,0.256652665,0.499489251,9.941463773
1764757960119973888,0.009015078,0.004604060,-0.007915968,0.208333412,0.489843022,9.894201454
1764757960125205760,0.007847424,0.006778760,-0.008187642,0.219569184,0.440279576,9.862717520
1764757960130359808,0.005147002,0.004543411,-0.010952273,0.254843894,0.479600768,9.924746919
1764757960135593728,0.011637877,0.006462553,-0.007691891,0.255667931,0.513329367,9.927482886
1764757960140839936,0.005817364,0.002128540,-0.009792449,0.346695992,0.530285261,9.979320016
1764757960146092800,0.009021117,0.006816487,-0.010239911,0.263028640,0.402029780,9.970572683
1764757960151277568,0.006256143,0.004034566,-0.007300948,0.292197100,0.470750852,9.905194374
1764757960156448512,0.005596725,0.004045788,-0.009390545,0.300289590,0.461354969,9.994108805
1764757960161712896,0.007649011,0.005763112,-0.008339526,0.154223395,0.457577708,9.769904925
1764757960166970880,0.009777989,0.004069656,-0.007310741,0.256397897,0.477454761,9.879433958
1764757960172209152,0.009431752,0.005286665,-0.005975066,0.265202465,0.416873534,9.879177609
1764757960177443584,0.006400834,0.004447312,-0.008498324,0.204957380,0.444542128,9.866771869
1764757960182686464,0.008865892,0.003944544,-0.006103415,0.255197073,0.348600780,9.843230109
1764757960187969536,0.008600636,0.003606436,-0.007974449,0.129947953,0.435215534,9.839749643
1764757960193192192,0.007162343,0.003245920,-0.008470913,0.181177756,0.482046890,9.806600845
1764757960198402048,0.007878900,0.005310018,-0.007670180,0.212467951,0.452905225,9.868658304
1764757960203630336,0.011316711,0.002986332,-0.006912151,0.284167271,0.395594788,9.828727019
1764757960208929792,0.008672394,0.005579565,-0.007327902,0.113244427,0.364648060,9.882721931
1764757960214138112,0.012549363,0.002338505,-0.007951602,0.164614092,0.458741825,9.931472019
1764757960219361024,0.006763266,0.004051288,-0.008448403,0.173155324,0.409603535,9.794338191
1764757960224610048,0.007288283,0.003629751,-0.006961742,0.067456326,0.513581487,9.917644946
1764757960229802496,0.012614808,0.003654393,-0.006606223,0.140276373,0.442022270,9.891627883
1764757960235042560,0.007335096,0.001855789,-0.009241573,0.141401712,0.493973042,9.881051872
1764757960240230144,0.009357487,-0.000045512,-0.008829228,0.131217409,0.464034203,9.906305882
1764757960245409024,0.009698725,0.003886405,-0.010836803,0.132322242,0.415287573,9.960439853
1764757960250646016,0.008726422,0.003059381,-0.011074454,0.134429559,0.497195999,9.909925887
1764757960255851520,0.008065414,0.006038549,-0.010526152,0.105565808,0.512558215,9.855012387
1764757960260998144,0.008115419,-0.000265526,-0.009889653,0.129527964,0.435749095,10.000952346
1764757960266231552,0.006577018,0.004412155,-0.008667829,0.073090156,0.341284932,9.905979374
1764757960271422208,0.006446914,0.002880009,-0.006456169,0.143532432,0.475941449,9.869083910
1764757960276662272,0.009611534,0.004369446,-0.009329104,0.259258256,0.418645626,9.937001973
1764757960282028032,0.010074629,0.002125726,-0.007327728,0.102489353,0.457222670,9.965593445
1764757960287288832,0.010870369,0.000720707,-0.008260843,0.112274313,0.467199221,9.912692034
1764757960292472576,0.005521160,0.004761577,-0.005432671,0.131579051,0.440733957,9.904340274
1764757960297666816,0.007933814,0.006712672,-0.007648949,0.179671650,0.448873576,9.939485890
1764757960302908416,0.007288782,0.003818097,-0.009018308,0.105746878,0.498059877,9.944526202
1764757960308148736,0.007721037,0.000235719,-0.004698721,0.019663459,0.359249160,9.893220171
1764757960313705472,0.006850896,0.002417366,-0.006463915,0.098673986,0.513387106,9.930192063
1764757960318944512,0.007512812,-0.000133012,-0.006682462,0.103100146,0.410285330,9.969557985
1764757960324420096,0.005732108,0.004530214,-0.006397252,0.092559268,0.452540704,9.809586383
1764757960329646080,0.008124250,0.004293456,-0.005045217,0.027398355,0.407025181,9.988279370
1764757960335609088,0.010351631,0.002708832,-0.010112420,0.138229825,0.454084001,9.847191600
1764757960340843264,0.007287390,0.003580937,-0.005193777,0.067854472,0.361771508,9.966279745
1764757960346068224,0.006933723,0.004756667,-0.006058045,0.113725197,0.439024217,9.929232981
1764757960351703296,0.008021817,0.001601628,-0.009966829,0.199692384,0.319997579,9.883470719
1764757960357610752,0.009495286,0.003248546,-0.002767080,0.031024326,0.329810873,9.903842237
1764757960362863360,0.008233779,0.002041525,-0.004806302,0.093990630,0.489869614,9.902743335
1764757960368185088,0.007086679,0.002766913,-0.003748916,0.092595678,0.444386259,9.933525243
1764757960374234368,0.008148431,0.005482594,-0.003484069,0.010751479,0.325148431,9.844290740
1764757960379601664,0.007067353,0.002579801,-0.008754290,0.039239818,0.420297740,9.867086565
1764757960385047552,0.006667203,0.000151442,-0.007486906,0.114802530,0.329524139,9.929772121
1764757960391268864,0.007850630,0.002960140,-0.005438223,0.005912611,0.416460136,9.931267996
1764757960396538624,0.009357949,0.006269606,-0.003994754,0.015546377,0.411639073,9.813027493
1764757960401816576,0.009593214,0.006106328,-0.004979204,0.052542428,0.407720847,9.939615390
1764757960407050240,0.004712352,0.005133730,-0.006423773,0.077725410,0.346167366,9.928467651
1764757960412182016,0.007609769,0.003835465,-0.004902279,0.055305768,0.321259765,9.885559352
1764757960417391104,0.006289716,0.003561743,-0.007174542,-0.037002121,0.393687391,9.950941931
1764757960422598144,0.008872169,-0.000880275,-0.004913279,0.113388624,0.318663134,9.820428340
1764757960427802880,0.008449272,0.002116623,-0.002234578,0.018480406,0.394571370,9.853679497
1764757960433003264,0.005096222,0.002833329,-0.002051801,0.051385903,0.420568876,9.960687238
1764757960438191616,0.007573919,0.002009644,-0.002729988,-0.024938014,0.299019300,9.989863133
1764757960443351808,0.007678439,0.003133619,-0.005537411,0.020458499,0.402781275,9.896634373
1764757960448511744,0.008403748,0.002562588,-0.005244630,0.107699790,0.331398341,9.909125962
1764757960453734912,0.007501709,0.005063286,-0.002098094,0.066181442,0.408149819,9.807267211
1764757960458988288,0.005624497,0.004563748,-0.002059031,0.045603359,0.295734537,9.964186079
1764757960464209920,0.006090976,0.001527196,-0.005604409,0.048694600,0.459467017,9.875357555
1764757960469341440,0.007044617,-0.000286900,-0.006715850,-0.021225964,0.414849000,9.845447776
1764757960474452992,0.006934344,0.004678250,-0.004275035,-0.035782581,0.340095845,9.977737204
1764757960479662336,0.006897292,0.000916669,-0.002362354,-0.020246314,0.353382003,9.832285527
1764757960484895488,0.009198533,0.004655896,-0.004812740,0.021075505,0.368139649,9.965219587
1764757960490100224,0.008812577,0.003867870,-0.001982181,0.148575719,0.334173574,9.845752425
1764757960495327232,0.006091292,0.001960055,-0.006874511,0.090107893,0.322413657,9.924477763
1764757960500578048,0.006385457,-0.000482922,-0.003333750,-0.002813410,0.360929573,9.917988330
1764757960505787904,0.004339813,0.002327526,-0.003216036,0.035757386,0.399176327,9.922986548
1764757960510966528,0.006806826,-0.000224174,-0.002851837,0.001877278,0.288479944,9.825359158
1764757960516167936,0.007218666,0.004134138,-0.001493510,-0.057375499,0.356464837,9.850344922
1764757960521303552,0.008317938,0.002222109,-0.004520583,0.029418185,0.286703877,9.920598262
1764757960526454528,0.009373450,0.000842802,-0.001443936,-0.050982672,0.376292250,9.939313841
1764757960531629568,0.008293745,0.001363904,-0.003552449,-0.054723235,0.320857613,9.893858162
1764757960536763392,0.009561699,0.002934012,-0.002856004,-0.027657937,0.389685543,9.951620780
1764757960541892864,0.007449565,-0.000239807,-0.004444977,0.056457254,0.391543483,9.911044563
1764757960546999808,0.004892707,-0.001081173,-0.004325750,-0.019229248,0.277351165,9.894057455
1764757960552103168,0.005722129,0.002510679,-0.002173203,-0.043366741,0.372365915,10.008777820
1764757960557207808,0.009578388,-0.001402224,-0.000148509,0.010900059,0.305706939,9.891270422
1764757960562323968,0.008951091,0.001120695,-0.002299016,-0.151628842,0.256356202,9.921756154
1764757960567448320,0.006043857,0.000175138,-0.005111660,-0.018546515,0.241918921,9.911483876
1764757960572586240,0.009219870,0.002964606,-0.000912566,-0.099097303,0.319534265,9.892774573
1764757960577774848,0.004500543,0.001660428,-0.002135270,0.057237098,0.322986183,9.900366959
1764757960582970112,0.008760012,0.003216400,-0.002279117,-0.055417162,0.380024584,9.885920481
1764757960588144896,0.011125902,-0.003846212,-0.005198666,-0.105048725,0.371124076,9.842614403
1764757960593327360,0.006721488,0.002643270,-0.000800454,0.040882447,0.340408951,9.902736487
1764757960598536704,0.006129111,0.001790374,-0.000435825,-0.066141569,0.312438349,9.937256650
1764757960603763968,0.009066908,0.002043057,-0.000249101,-0.110844098,0.391768091,9.836103502
1764757960608943616,0.010948065,0.002009382,-0.001312811,-0.120625022,0.406383484,9.863171733
1764757960614086144,0.007136106,0.001801194,-0.001688133,0.001292623,0.466222688,9.961309655
1764757960619238656,0.008188131,-0.000061185,0.000350199,-0.049897296,0.259096562,9.896962400
1764757960624374528,0.007594303,-0.001779719,-0.001092534,-0.027587239,0.367394190,9.867921863
1764757960629491712,0.008985752,0.000558175,0.001946690,-0.064357249,0.237438926,9.907919304
1764757960634616576,0.008589223,0.000122788,-0.001661993,-0.057560921,0.402719793,9.867172353
1764757960639818752,0.006175804,-0.000203158,-0.004292691,-0.041416098,0.333058797,9.925836745
1764757960644942848,0.004718468,0.001742717,0.002859811,-0.040270855,0.202933180,9.817002058
1764757960650105344,0.006533702,0.000176542,0.000176839,-0.148606672,0.286769676,9.865761632
1764757960655280384,0.005212579,-0.000012690,0.000813453,-0.007552465,0.248451943,9.883647887
1764757960660461312,0.006331024,-0.000944270,-0.001323465,-0.099532394,0.290653314,9.869786505
1764757960665702656,0.007246942,0.001687963,-0.000861641,-0.080957870,0.320595738,9.853326471
1764757960670873088,0.005583294,0.003968675,0.001717724,-0.108428215,0.280810877,9.889734273
1764757960676057088,0.005587016,-0.001509285,0.000435473,-0.024067417,0.321439647,9.924933736
1764757960681239040,0.003287905,0.003796650,0.001418609,-0.112118503,0.387943146,9.779402406
1764757960686430720,0.009910348,-0.003123221,-0.000045951,-0.112481501,0.315621851,9.938835925
1764757960691584512,0.005910874,-0.000724396,-0.000865522,-0.082608464,0.261508694,9.769260407
1764757960696750080,0.004610761,0.001534987,0.000392239,-0.088067747,0.251137418,9.912218564
1764757960701925120,0.005777078,-0.003749337,0.001224933,-0.196119678,0.282045498,9.810904172
1764757960707053312,0.006012057,0.000283804,0.006507873,-0.012960264,0.240284194,9.784531171
1764757960712163584,0.006930957,0.001360652,0.003889070,-0.107463318,0.256459789,9.850953947
1764757960717284096,0.007731369,0.000774872,-0.001144115,-0.163706465,0.299057168,9.975901356
1764757960722394112,0.003201840,0.000189462,0.002894869,-0.083301719,0.190856301,9.851009939
1764757960727560192,0.007440111,0.001681151,0.000434826,-0.047483510,0.209811117,9.901361294
1764757960732809728,0.010804592,0.001581792,0.003701321,-0.155633524,0.246893595,9.828822163
1764757960737996800,0.005418154,0.000931823,0.005906452,-0.095657798,0.256094740,9.825025705
1764757960743179776,0.005710183,-0.001652774,0.001732940,-0.114829823,0.241338856,9.860651624
1764757960748290304,0.004318860,-0.002982692,0.001346779,-0.042022501,0.257825838,9.900055982
1764757960753404928,0.006145038,0.002649785,0.003165740,-0.155941773,0.259306845,9.813128059
1764757960758512128,0.004930490,-0.001256273,-0.001049713,-0.183771515,0.210137871,9.857878682
1764757960763634176,0.005806144,-0.000945568,0.004704768,0.022640514,0.303899999,9.874292942
1764757960768783360,0.006060320,0.000013855,0.002000578,-0.093399135,0.244453266,9.829025538
1764757960773916416,0.005399964,-0.001744181,0.000831780,-0.178821541,0.326520970,9.800659919
1764757960779032576,0.008354468,-0.001069128,0.000539522,-0.036077332,0.184172779,9.808398707
1764757960784179712,0.006810804,0.000474909,0.001278919,-0.099190727,0.198252209,9.742174015
1764757960789322496,0.006209660,-0.001207994,0.001845480,-0.162733462,0.268386242,9.894354110
1764757960794449664,0.008759951,-0.000639760,0.004192141,-0.092168632,0.271091333,9.820321493
1764757960799588096,0.004683572,-0.002914925,0.005720002,-0.108597679,0.262787033,9.855005312
1764757960804712192,0.004843072,0.000089281,0.003535269,-0.290206041,0.191477278,9.871663246
1764757960809832704,0.004261475,-0.007706374,0.004641343,-0.109383753,0.267924840,9.897994175
1764757960814998272,0.003950523,0.001801166,0.005557876,-0.188147971,0.179415189,9.746551507
1764757960820172544,0.007433127,0.003266741,0.002220661,-0.183682031,0.277952760,9.812143546
1764757960825342976,0.006794278,-0.004008086,0.002528135,-0.092814441,0.241422122,9.871690580
1764757960830536704,0.007207720,-0.000752236,0.002706618,-0.095542864,0.193528652,9.900324563
1764757960835742976,0.007276789,-0.001490023,0.005855191,-0.175377235,0.146830213,9.910134663
1764757960840902912,0.004228545,0.001515086,0.003662806,-0.171474519,0.230836007,9.896501399
1764757960846061056,0.005889035,0.000477386,0.003861803,-0.051084241,0.274158100,9.874358960
1764757960851204096,0.007854735,-0.000790151,0.002885005,-0.151735123,0.137183876,9.791241162
1764757960856343040,0.003528940,-0.000069696,-0.000088673,-0.098241801,0.286830780,9.893950679
1764757960861487104,0.002259892,-0.002570867,0.005905662,-0.158956836,0.193052501,9.809296251
1764757960866649088,0.003098083,-0.000946099,0.003813719,-0.192341983,0.207480860,9.831587001
1764757960871811584,0.006145835,0.000916989,0.001888714,-0.127744091,0.261440747,9.837291854
1764757960876953088,0.002325185,0.001699338,0.005890237,-0.166805598,0.141201687,9.820309381
1764757960882096128,0.002292715,-0.000321584,0.003399046,-0.153987519,0.282160538,9.819864446
1764757960887257856,0.004432093,0.001323884,0.003330876,-0.024928266,0.303178528,9.865338522
1764757960892439552,0.001569799,0.000886683,0.004531721,-0.089180037,0.152072620,9.801438321
1764757960897675008,0.003749996,0.000531880,0.002205736,-0.080729043,0.229316286,9.841277171
1764757960902871296,0.005864096,0.001154297,0.009083660,-0.200091151,0.160229852,9.769102102
1764757960908055040,0.006394460,-0.000463403,0.003709514,-0.177165103,0.112321823,9.832637248
1764757960913206016,0.006736113,0.001178838,0.005314727,-0.175369761,0.230943531,9.756977180
1764757960918345984,0.007570910,-0.002346147,0.005713625,-0.085849287,0.125421736,9.690438261
1764757960923492096,0.002910437,-0.000733502,0.006892056,-0.242035017,0.236465384,9.727361764
1764757960928643328,0.004689980,-0.000459726,0.004012391,-0.207972101,0.179886090,9.787085804
1764757960933779456,0.006451071,-0.004544924,0.004189525,-0.148552286,0.136900269,9.778841976
1764757960938939392,0.000391029,-0.000000943,0.009999157,-0.231539130,0.121626912,9.758647368
1764757960944093696,0.007853605,0.001167116,0.005279705,-0.193927960,0.177256114,9.718593742
1764757960949232640,0.005586647,-0.001686214,0.007913743,-0.245272357,0.209646633,9.765498931
1764757960954375424,0.002071969,-0.001697296,0.005208333,-0.141480025,0.134502466,9.808027139
1764757960959560192,0.004850445,-0.001777320,0.007026048,-0.184794588,0.072069648,9.836554533
1764757960964829184,0.003213846,-0.001053338,0.004063563,-0.261338570,0.197645375,9.690525075
1764757960970011392,0.007076985,-0.001627877,0.004328649,-0.260119136,0.129332258,9.796124889
1764757960975137792,0.001814735,-0.004166206,0.009303808,-0.247826772,0.184215736,9.643733632
1764757960980316416,0.001631869,-0.000372992,0.004358658,-0.165949477,0.164489884,9.763242489
1764757960985491712,0.003994805,-0.002867616,0.005964937,-0.195139991,0.185616497,9.790703610
1764757960990649088,0.003167668,-0.000398023,0.006305431,-0.155699679,0.055168317,9.813138123
1764757960995808256,0.006459955,-0.002784301,0.005502831,-0.132026293,0.154000635,9.785514611
1764757961001031936,0.002292351,-0.005345781,0.008078099,-0.135588030,0.171224587,9.742409840
1764757961006230272,0.004630977,0.001823253,0.005605320,-0.160238255,0.128353428,9.757490144
1764757961011417600,0.001756912,-0.001131412,0.007567117,-0.202753257,0.155607059,9.739328807
1764757961016593152,0.007302672,0.002297958,0.004894991,-0.096945394,0.120767617,9.740743316
1764757961021802752,0.004654559,-0.002916506,0.003722133,-0.213863995,0.169409017,9.792495347
1764757961026983936,0.003914035,-0.003334975,0.008244477,-0.240492199,0.159503301,9.861400621
1764757961032189440,0.000316426,-0.004908195,0.006419124,-0.258724888,0.140048822,9.758261680
1764757961037356032,0.005666858,-0.006653272,0.003899773,-0.148388193,0.115688756,9.700309576
1764757961042512384,0.005394181,-0.000087152,0.006196025,-0.334725310,0.134831963,9.682721176
1764757961047656960,0.005616325,-0.000983352,0.008134961,-0.151130052,0.089324407,9.726020209
1764757961052818176,0.004930271,-0.001297564,0.008619299,-0.218685629,0.092144550,9.745700832
1764757961057956352,0.005986905,0.000008036,0.009231316,-0.227650066,0.101192114,9.789184256
1764757961063137024,0.002531411,0.001470322,0.009416443,-0.216572293,0.180919895,9.748584443
1764757961068361728,0.003047054,-0.001982542,0.007665976,-0.290727139,0.146450449,9.769273323
1764757961073566208,0.002957087,-0.003889530,0.005482704,-0.228718472,0.087670395,9.767466346
1764757961078735360,0.004259889,-0.003473748,0.007170482,-0.189815648,0.131917613,9.650956360
1764757961083920640,0.006832748,-0.001542923,0.008345835,-0.262925488,0.159884103,9.653147572
1764757961089098752,0.001809813,-0.005997199,0.004322486,-0.328891817,0.150828198,9.774961828
1764757961094278144,0.001995619,-0.001564601,0.007678889,-0.223000191,0.233000645,9.688676853
1764757961099501056,0.003667478,-0.002382157,0.008293028,-0.224173337,0.157287499,9.717688126
1764757961104707584,0.000077913,-0.000496804,0.009876463,-0.260739512,0.035648094,9.855881146
1764757961109893632,0.002633865,-0.001594390,0.007052677,-0.253777850,0.021062780,9.764048221
1764757961115069440,-0.000244538,-0.002773863,0.008425781,-0.215327090,0.016058643,9.815291874
1764757961120249856,0.002384504,-0.002746563,0.007155232,-0.155220594,0.057482780,9.811493206
1764757961125410560,0.003682306,0.001226160,0.007314509,-0.170732168,0.162818824,9.756256163
1764757961130623232,0.000714303,-0.003306160,0.006858138,-0.173688293,0.069227466,9.783098624
1764757961135747840,0.003288487,-0.003916600,0.007720399,-0.138019418,0.116015434,9.775429411
1764757961140919552,0.005087878,-0.004222764,0.007266580,-0.220957463,0.139224382,9.712758318
1764757961146097664,0.001442321,-0.001788080,0.009170511,-0.231169163,-0.012862917,9.729119806
1764757961151273728,0.003634148,-0.004473446,0.005117211,-0.259198044,0.051670605,9.762908453
1764757961156449536,0.004868683,-0.001968207,0.009966258,-0.232325741,0.013008048,9.725150654
1764757961161628672,0.005969365,-0.003341900,0.008727194,-0.162456412,0.112968425,9.724086487
1764757961166833408,0.002388981,-0.002457112,0.006578444,-0.351757678,0.090438800,9.655867526
1764757961172031488,0.001418408,0.000755564,0.008743414,-0.248600272,0.065514797,9.685445424
1764757961177206272,0.001942703,-0.002167246,0.011728839,-0.180138149,-0.005371573,9.767537414
1764757961182381312,0.001759062,-0.003726201,0.007332203,-0.202507883,0.063130265,9.743466854
1764757961187564032,0.001170209,-0.002611335,0.009441797,-0.151782845,0.046417079,9.689282521
1764757961192766208,0.000339602,-0.002714916,0.007067190,-0.199862064,0.080393895,9.698751427
1764757961197960448,0.002259964,-0.003620665,0.002974555,-0.178429794,0.063452000,9.762378507
1764757961203154432,0.001006846,-0.003752151,0.005567980,-0.217682085,0.054209348,9.695434497
1764757961208334848,0.000177033,-0.003557721,0.009950242,-0.143268677,0.132161315,9.844557541
1764757961213508864,0.001259326,-0.002450214,0.009606386,-0.173485097,0.027210278,9.768182821
1764757961218690560,0.004381564,-0.003391103,0.007856050,-0.140633223,0.081431404,9.716731842
1764757961223846656,0.000795189,-0.001802950,0.010192165,-0.170247975,0.064583722,9.810338691
1764757961229009920,0.003849923,-0.001826270,0.009679445,-0.259501460,0.098294392,9.701243024
1764757961234149632,-0.000128140,-0.002153955,0.007371301,-0.144220605,0.014238975,9.646488322
1764757961239288064,0.003040579,-0.002093167,0.010450401,-0.263700213,0.067106685,9.668022947
1764757961244405248,0.004457908,-0.004291604,0.008090665,-0.180290184,0.044675090,9.695648534
1764757961249501440,0.000039412,-0.005364924,0.007074061,-0.134520799,0.071747995,9.780281132
1764757961254691840,-0.000886487,-0.006970266,0.009917773,-0.278199433,-0.030203585,9.780076039
1764757961259879168,0.001414414,-0.001578031,0.006778422,-0.104532397,0.002995314,9.675658149
1764757961265121024,0.002375150,-0.003338669,0.009027125,-0.212082670,0.040677225,9.598934560
1764757961270323712,0.003035685,-0.002345176,0.009217435,-0.143198938,0.021368245,9.766566329
1764757961275509760,0.000901323,-0.003821514,0.008188154,-0.231202619,0.021098330,9.668885154
1764757961280705280,-0.000003652,-0.001036338,0.008096308,-0.190587225,-0.053431776,9.722420962
1764757961285895424,0.003946038,-0.004961087,0.006268887,-0.131775459,-0.013884040,9.785716258
1764757961291117312,0.001020015,-0.008338551,0.008669230,-0.154138928,0.007905987,9.728575329
1764757961296334848,-0.000982232,-0.000556660,0.005818686,-0.055065143,0.014468998,9.726247130
1764757961301555968,0.001915817,-0.005062364,0.012039052,-0.194152511,0.080266334,9.780283734
1764757961306780672,0.003605138,-0.004796859,0.008516664,-0.134468798,0.074123246,9.767492627
1764757961311974656,0.000689864,-0.002410108,0.011045451,-0.161329087,0.027060147,9.742892141
1764757961317171968,0.002474762,-0.001129580,0.009130220,-0.117437488,0.013105974,9.709720678
1764757961322373376,0.004040156,-0.003070653,0.007174539,-0.128692130,-0.003147882,9.634164515
1764757961327495936,0.000729803,-0.005327265,0.005353870,-0.110907427,-0.053968831,9.713034348
1764757961332741632,0.000384625,-0.005729847,0.009068046,-0.111850242,-0.045067173,9.625287585
1764757961337988096,0.000029366,-0.003060187,0.010606133,-0.150576574,0.040933969,9.686598639
1764757961343181824,-0.000479407,-0.002261599,0.006123547,-0.261373652,0.022888776,9.713182082
1764757961348368640,0.001051964,-0.005008556,0.011053053,-0.131285063,-0.083832841,9.700867280
1764757961353557248,-0.000234400,0.000221570,0.007049314,-0.098324391,-0.053028810,9.727664467
1764757961358852352,0.001187456,-0.003107586,0.011469778,-0.091624999,-0.056370500,9.677422063
1764757961364045568,0.001331051,0.000531149,0.007660538,-0.186385958,-0.012320533,9.687773523
1764757961369277952,0.001226528,-0.005427999,0.008486632,-0.209531091,-0.074921550,9.711768619
1764757961374514688,0.002646742,-0.003009704,0.008945558,-0.166433650,-0.056484934,9.761021222
1764757961379789056,0.001516770,-0.005371410,0.007490257,-0.146373551,-0.047544112,9.762456103
1764757961385020160,-0.000214113,-0.006904280,0.010905411,-0.164383818,-0.080383021,9.719226653
1764757961390232576,0.003488681,-0.004732079,0.007408119,-0.139783158,0.053848161,9.718693429
1764757961395486720,0.001685219,-0.003839625,0.011723514,-0.168213904,-0.167972676,9.713568427
1764757961400688384,-0.000319115,-0.004680801,0.006557402,-0.092093203,0.010764589,9.688421444
1764757961405877504,-0.001674451,-0.004858583,0.008197858,-0.141971681,0.032093610,9.864235345
1764757961411036160,-0.001051352,-0.008838611,0.008297462,-0.199422669,-0.034885247,9.656614508
1764757961416240896,-0.002695653,-0.003605112,0.007078903,-0.068559439,-0.061249399,9.701785548
1764757961421446912,-0.002755702,-0.003637214,0.007747515,-0.153905982,0.055727856,9.628788834
1764757961426640128,0.000014084,-0.002789991,0.007538906,-0.141767058,-0.029099257,9.670802871
1764757961431786496,0.002474079,-0.006770383,0.008716685,-0.250770531,-0.011652289,9.771390106
1764757961436997888,-0.002255687,-0.001409711,0.007768347,-0.141398413,0.010213840,9.688933507
1764757961442201856,-0.001144226,-0.005361200,0.004971353,-0.142767568,0.069656254,9.651903869
1764757961447399680,-0.000821010,-0.007435889,0.008722406,-0.159000593,0.012085750,9.750025387
1764757961452581888,0.000094488,-0.006288162,0.009300681,-0.147174661,-0.059346196,9.770104073
1764757961457780992,-0.003415321,-0.003738385,0.006574528,-0.140283045,0.007266652,9.712011369
1764757961463076096,-0.001952395,-0.005481246,0.002437418,-0.113573092,-0.054509460,9.721612134
1764757961468303872,-0.001864268,-0.001880986,0.010448869,-0.224972932,-0.009030485,9.733655670
1764757961473509376,0.003548890,-0.005993707,0.007540673,-0.121143190,-0.070004978,9.771000481
1764757961478741760,0.001828876,-0.005549907,0.008333918,-0.088334804,-0.065186440,9.666850876
1764757961483924736,-0.000130885,-0.005441262,0.009404833,-0.213014880,-0.105611747,9.641167051
1764757961489094912,0.000872375,-0.004297881,0.006421062,-0.162507353,-0.133342660,9.642675171
1764757961494235904,0.003556670,-0.000766972,0.006783384,-0.053909224,0.060074898,9.716009767
1764757961499362560,-0.000043409,-0.004989552,0.002742517,-0.159856184,-0.043457607,9.724062917
1764757961504549632,-0.002712300,-0.006117674,0.008574484,-0.178642971,-0.066174817,9.707246325
1764757961509656064,-0.004088647,-0.003525407,0.009921693,-0.104684484,-0.065893923,9.679420780
1764757961515373824,-0.002952240,-0.005933601,0.013970997,-0.053061216,-0.018422984,9.678423337
1764757961521142016,-0.002914125,-0.005208565,0.007861878,-0.099461568,0.022585311,9.735552945
1764757961526568192,-0.001369586,-0.004592920,0.005135992,-0.184399726,-0.122656353,9.691424855
1764757961531786752,-0.000281360,-0.005377623,0.008507973,-0.104992198,-0.030481516,9.707697897
1764757961537068800,-0.004820931,-0.004349565,0.010838463,-0.052068376,-0.068118887,9.709006154
1764757961542557952,-0.000788563,-0.003644347,0.004735919,0.006920365,-0.032841320,9.757471384
1764757961547871232,-0.000113656,-0.006799374,0.007015008,-0.132247940,-0.050071990,9.683074293
1764757961553167872,-0.003836990,-0.002319624,0.008590156,-0.162229462,-0.064723404,9.780797665
1764757961559461632,-0.001022247,-0.003473566,0.004389891,-0.130508069,-0.031165390,9.814298631
1764757961564644352,-0.002313755,-0.007304197,0.006670412,-0.065522280,-0.082174396,9.785330855
1764757961570596352,-0.002171433,-0.006622148,0.008241900,-0.086966899,-0.070386019,9.707460315
1764757961575741696,-0.000134172,-0.002184348,0.005938614,-0.026740419,-0.181937948,9.606458513
1764757961580968192,0.000062366,-0.006437574,0.006642086,-0.112036000,-0.118512612,9.773669334
1764757961586219264,-0.002948914,-0.006385573,0.006985032,-0.078571257,-0.122652414,9.652558278
1764757961591452416,-0.003684505,-0.006229586,0.011272872,-0.121531768,-0.078462284,9.775126756
1764757961596654336,-0.003521689,-0.004273890,0.004905782,-0.091735914,-0.114576480,9.660967186
1764757961601897472,-0.002389337,-0.006786947,0.009324114,-0.053924664,-0.021746290,9.735961855
1764757961607129344,-0.004935202,-0.005072115,0.005709561,-0.124085819,-0.089883311,9.834849907
1764757961612306944,0.001629284,-0.003586254,0.007154844,-0.079664487,-0.089196630,9.764311269
1764757961617524480,-0.001688821,-0.006896687,0.006754403,-0.062392285,-0.024315034,9.743035138
1764757961622813696,-0.002969010,-0.003747619,0.007712790,-0.110488619,-0.101627744,9.670076742
1764757961628123392,-0.005518090,-0.006168454,0.009555577,-0.003772305,-0.066437973,9.671378008
1764757961633380352,-0.000516402,-0.006638065,0.004801057,-0.105467218,-0.104250340,9.764646536
1764757961638635520,-0.000668393,-0.005809266,0.007932580,-0.053427712,-0.124109100,9.784169906
1764757961643893504,-0.000591703,-0.005009047,0.003488771,-0.093855606,-0.061962668,9.747740582
1764757961649167872,-0.003365153,-0.006812524,0.007938746,-0.078654606,-0.024673442,9.787942394
1764757961654828288,-0.003568523,-0.005030712,0.004138808,-0.042862930,-0.108606782,9.644950218
1764757961660108544,-0.004703869,-0.005860661,0.007211502,0.018992526,0.006351446,9.738390738
1764757961666242304,-0.003221551,-0.004030746,0.004043071,-0.069521030,-0.074740415,9.710911688
1764757961671477760,-0.004967784,-0.004191637,0.005609860,0.034618973,-0.043717723,9.757199560
1764757961676739072,-0.003728345,-0.002181440,0.002095972,-0.009484489,-0.078148167,9.662699549
1764757961681956608,-0.000852118,-0.003822948,0.003006642,-0.030345105,-0.123172291,9.692803267
1764757961687144448,-0.000208828,-0.005817028,0.005939479,-0.012160384,-0.061366495,9.828301052
1764757961692345344,-0.001033352,-0.008868021,0.004535331,-0.007677765,-0.082722401,9.759796729
1764757961697554944,-0.001882678,-0.005437520,0.003144450,0.002195724,-0.116291303,9.809410062
1764757961702795264,-0.002534898,-0.005128887,0.001986703,-0.014402158,-0.057815259,9.774136761
1764757961708000512,-0.003737342,-0.002839904,0.003271489,-0.075581476,-0.095089508,9.749569221
1764757961713188096,-0.002264647,-0.008050084,0.001813886,0.007129059,-0.037400299,9.832802302
1764757961718379776,0.000501819,-0.007638024,0.001884574,-0.048533668,-0.043709843,9.740021838
1764757961723495424,-0.005636620,-0.006814008,0.002826745,0.030836175,-0.171723972,9.758469991
1764757961728637440,-0.004398174,-0.004859266,0.004551753,0.059820923,-0.127727762,9.738541599
1764757961733769984,-0.005617768,-0.008299869,0.005947236,-0.026633699,-0.118349250,9.724014176
1764757961738910720,-0.000110119,-0.005207461,0.004760720,-0.009242160,-0.090257488,9.831741240
1764757961744060160,-0.004634703,-0.005138853,0.001857858,0.016910299,-0.128499679,9.843260008
1764757961749226496,-0.002183114,-0.003265504,0.003724888,-0.010886486,-0.163695901,9.657656909
1764757961754470400,-0.003611963,-0.004569070,0.006168934,-0.020210249,-0.093777432,9.794936051
1764757961759717120,-0.000824606,-0.007012443,0.000937661,-0.007262650,-0.113648523,9.865734276
1764757961764935168,-0.006946799,-0.007569628,0.001524468,0.028717917,-0.149977576,9.734306397
1764757961770161920,-0.004747857,-0.004795048,0.003457493,-0.023981577,-0.101376523,9.786316732
1764757961775393536,-0.006169074,-0.005227691,0.002742289,-0.055101242,0.022191060,9.676870876
1764757961780614656,-0.004892781,-0.007534917,0.002405138,0.029177341,-0.084255481,9.746015491
1764757961785760512,-0.001462464,-0.004723528,0.002514575,-0.010107561,-0.077712845,9.775415288
1764757961790943232,-0.006679742,-0.008052408,0.005367869,0.022618193,-0.085946520,9.772205299
1764757961796098560,0.001100314,-0.006286157,0.000141116,0.174394528,-0.113391954,9.734254905
1764757961801227520,-0.003128986,-0.004823678,0.001961414,0.128370500,-0.102304859,9.771659288
1764757961806339072,-0.008280626,-0.008544456,0.003763286,0.076295276,-0.046331422,9.797227544
1764757961811445248,-0.006352576,-0.007570108,0.001521694,0.021188855,-0.093635943,9.750934886
1764757961816543488,-0.004734402,-0.008802737,0.002630225,0.058841899,-0.149077123,9.788867535
1764757961821716736,-0.004947951,-0.007236121,0.003079442,0.085167395,-0.118647834,9.920555304
1764757961826943744,-0.004617130,-0.006831369,0.002965090,0.069930793,-0.113272875,9.812427450
1764757961832222720,-0.006474459,-0.005429128,-0.001380709,0.016278340,-0.109709130,9.844914959
1764757961837425664,-0.005746610,-0.009572267,0.001358504,0.014055283,-0.105505828,9.804812334
1764757961842643968,-0.006006853,-0.005294883,-0.003237685,-0.005005097,-0.131826826,9.818084261
1764757961847894272,-0.006949726,-0.007223469,0.001229972,0.077421290,-0.175302550,9.755583549
1764757961853074432,-0.004496600,-0.006406204,0.002987703,-0.019150498,-0.070182220,9.837693628
1764757961858390528,-0.004356420,-0.005591916,0.002190893,0.031803800,-0.086107445,9.835377490
1764757961863615744,-0.005765711,-0.004001253,0.000837571,-0.023958873,-0.187261485,9.826935235
1764757961868882688,-0.007075396,-0.007694835,0.001757075,0.119355516,-0.010749637,9.770452615
1764757961874140672,-0.006229029,-0.005957143,-0.001681861,0.067145724,0.002266072,9.820566724
1764757961879287552,-0.006481077,-0.006827190,0.002282110,0.088932826,-0.107722236,9.739115171
1764757961884397312,-0.004072651,-0.007213585,0.004118579,0.088166886,-0.129791597,9.767857087
1764757961889602560,-0.007492169,-0.005845270,0.000482491,0.149997687,-0.128686097,9.786514111
1764757961895003648,-0.003988137,-0.005794198,0.001765788,0.060140520,-0.119984868,9.868204157
1764757961900182784,-0.003362282,-0.007412757,0.002223058,0.072598458,-0.083097292,9.855118896
1764757961905359360,-0.001798394,-0.005539484,-0.001506682,0.116020112,-0.098912711,9.772098684
1764757961910523904,-0.005479944,-0.006709691,0.001391233,0.107151775,-0.110259279,9.832604647
1764757961915665408,-0.000998257,-0.005918939,-0.000323315,0.068054722,-0.088476713,9.835052423
1764757961920811264,-0.005996558,-0.007407444,-0.000459506,0.115145127,-0.067764804,9.830602792
1764757961925973504,-0.005136211,-0.008774283,0.002592080,0.066608584,-0.110159547,9.810336540
1764757961931202560,-0.003962488,-0.007475395,-0.001192676,0.230799492,-0.148787845,9.775770256
1764757961936401152,-0.008484118,-0.006382508,-0.002978588,0.071034292,-0.112393650,9.862622608
1764757961941585152,-0.006422875,-0.008289966,-0.001743399,0.119154416,-0.053312835,9.832593532
1764757961946729728,-0.004734385,-0.007445976,-0.001906142,0.219911702,-0.114672589,9.814256775
1764757961951862016,-0.004571613,-0.008166604,-0.001604853,0.138256726,-0.131558467,9.793275216
1764757961957081856,-0.006226458,-0.007246231,-0.001854484,0.053643932,-0.083566313,9.780519804
1764757961962315776,-0.007222925,-0.007299577,0.001791155,0.129868423,-0.123703099,9.784896833
1764757961967519744,-0.006887037,-0.007742460,0.001229823,0.067083638,-0.028767097,9.827162105
1764757961972688896,-0.003781680,-0.007904160,-0.001437323,0.107380870,-0.150858018,9.812848959
1764757961977894144,-0.002840475,-0.008599889,-0.000182015,0.186060818,-0.013766426,9.907145695
1764757961983078656,-0.007054248,-0.008494730,0.000405974,0.094985689,-0.081408185,9.834250209
1764757961988269568,-0.005564456,-0.006100902,-0.002593188,0.191497622,-0.100148500,9.857876311
1764757961993505536,-0.004688074,-0.006218953,-0.001363863,0.071257670,-0.069380509,9.895733837
1764757961998729216,-0.005571436,-0.007149907,-0.004812195,0.091673558,-0.197969970,9.878751768
1764757962003952640,-0.006616697,-0.004903624,-0.000681680,0.130950855,-0.033550814,9.813585980
1764757962009179904,-0.005907869,-0.006050756,-0.000825625,0.201905736,-0.121518953,9.881132788
1764757962014406912,-0.002410216,-0.008375054,-0.002238292,0.139447906,-0.144037390,9.829568932
1764757962019633152,-0.008129607,-0.007627967,-0.003970172,0.135913496,0.045635135,9.772820922
1764757962024840704,-0.005868125,-0.006825256,-0.001439584,0.225317623,-0.114987947,9.922653758
1764757962030073344,-0.007826584,-0.004975629,-0.004077110,0.233319885,-0.091369054,9.902329166
1764757962035232768,-0.004372863,-0.006518224,-0.000889961,0.133535385,-0.065379548,9.828089577
1764757962040352768,-0.006483293,-0.006856024,-0.002915201,0.175695874,-0.119713018,9.831904104
1764757962045482752,-0.006461973,-0.006747960,0.001678463,0.209697703,-0.068868611,9.782159867
1764757962050625280,-0.007814493,-0.006501590,-0.001751013,0.279758391,-0.052263301,9.870309994
1764757962055738880,-0.008714671,-0.007119879,-0.003010446,0.170129601,-0.070583953,9.861177440
1764757962060956416,-0.006445952,-0.006831062,-0.003071432,0.093851586,-0.055755576,9.865935488
1764757962066168832,-0.007798496,-0.008750502,-0.006789483,0.095585810,-0.114345834,9.778074322
1764757962071410176,-0.007135233,-0.008792476,-0.003246124,0.126162867,-0.201883708,9.874601536
1764757962076617472,-0.006979846,-0.007750382,-0.003640066,0.216196389,-0.028917258,9.891290566
1764757962081871872,-0.006894134,-0.006777882,-0.003879045,0.144986292,-0.020487469,9.856531821
1764757962087102208,-0.009297004,-0.006216330,-0.000756061,0.038801625,-0.100393853,9.917236708
1764757962092289536,-0.007445881,-0.008499038,-0.004636899,0.201208414,-0.037885857,9.863184157
1764757962097471232,-0.006795371,-0.009185640,-0.004513339,0.257657721,-0.135887557,9.808481330
1764757962102652672,-0.008260622,-0.005659282,-0.003906724,0.230633690,-0.044753840,9.723621431
1764757962107789824,-0.009490469,-0.006736625,-0.004001871,0.211940661,-0.128472849,9.740387381
1764757962112959488,-0.002778204,-0.007510001,-0.004405310,0.166392374,-0.072840662,9.947280024
1764757962118080512,-0.005011895,-0.007931871,-0.004697707,0.294538566,-0.024430712,9.864172915
1764757962123226368,-0.007469795,-0.008910596,-0.002610403,0.137711351,-0.088302548,9.888807168
1764757962128451328,-0.002744597,-0.006690613,-0.005010399,0.262162891,-0.091794616,9.814094096
1764757962133700608,-0.004418390,-0.006930708,-0.005426470,0.239875709,-0.092839795,9.923708107
1764757962138880768,-0.008457759,-0.009807354,-0.003927055,0.195698152,-0.029587075,9.871735754
1764757962143993088,-0.007119316,-0.009228060,-0.004919318,0.264997025,-0.112505465,9.814869341
1764757962149191680,-0.009975469,-0.005963624,-0.005601754,0.345385808,-0.139427708,9.871288255
1764757962154349312,-0.010687792,-0.009828747,-0.002485233,0.238037433,-0.024255543,9.968426363
1764757962159499008,-0.005722409,-0.005927480,-0.004882431,0.239608607,-0.034373864,9.905726334
1764757962164636672,-0.007674926,-0.007501937,-0.006315400,0.243028034,-0.168652975,9.841439283
1764757962169805312,-0.008363702,-0.007002745,-0.004071445,0.241777555,0.036556696,9.830639498
1764757962175024128,-0.006779151,-0.009574565,-0.007490974,0.304396331,-0.053320003,9.865100486
1764757962180253440,-0.005502422,-0.005829569,-0.006119239,0.298647452,-0.095406054,9.884405254
1764757962185485312,-0.009562668,-0.009178870,-0.003520892,0.209108599,-0.059107419,9.896901703
1764757962190622720,-0.007379612,-0.008415140,-0.006039475,0.216100714,-0.047565638,9.881891254
1764757962195772928,-0.005650324,-0.006275975,-0.006468120,0.156826886,-0.069502531,9.857047964
1764757962200973056,-0.005043412,-0.008014258,-0.004723944,0.204754507,-0.057435098,9.923537701
1764757962206098944,-0.006711287,-0.007058831,-0.005525737,0.309925064,0.016462848,9.884227442
1764757962211321856,-0.004134408,-0.007834465,-0.007686864,0.293843879,-0.056788979,9.952046320
1764757962216570624,-0.006300648,-0.006446561,-0.006522714,0.242133499,-0.094229415,9.878158141
1764757962221733376,-0.004969466,-0.006236775,-0.004572869,0.321930070,-0.120509874,9.951045460
1764757962226902016,-0.007334942,-0.007728894,-0.007973405,0.272918427,-0.077664337,9.876469676
1764757962232110848,-0.009507871,-0.005303590,-0.007148338,0.321103813,-0.055230496,9.880610519
1764757962237222912,-0.010496001,-0.008378114,-0.005733031,0.306014925,-0.087399098,9.871092231
1764757962242323456,-0.007736260,-0.008383809,-0.009184150,0.313167911,-0.065298235,9.944183337
1764757962247463680,-0.004777571,-0.004959274,-0.008998128,0.343548725,-0.109860526,9.922227918
1764757962252564736,-0.007427345,-0.009652841,-0.006221370,0.210319715,-0.039011023,9.925295049
1764757962257754880,-0.004961155,-0.006796979,-0.004676458,0.361686672,-0.073120783,9.860284097
1764757962262941184,-0.005832340,-0.006456774,-0.004372708,0.207237808,-0.043500472,9.880465763
1764757962268106240,-0.006312562,-0.006255571,-0.005815300,0.283247778,-0.099849093,9.928792830
1764757962273211392,-0.008371860,-0.007482631,-0.003690483,0.335521507,-0.005837749,9.895553372
1764757962278330368,-0.005707318,-0.006158241,-0.008456573,0.350884387,-0.028197707,9.808255698
1764757962283498752,-0.008407164,-0.009777292,-0.006026054,0.217412382,-0.065415655,9.980368675
1764757962288635904,-0.007913320,-0.008697538,-0.006128424,0.285565270,-0.142669911,9.853384011
1764757962293742848,-0.006957584,-0.007875946,-0.007417380,0.364228176,-0.116946568,9.864558651
1764757962298869760,-0.011768777,-0.011058678,-0.006121695,0.246829758,-0.100995254,9.927488140
1764757962304008192,-0.009224057,-0.007421653,-0.007299658,0.268178023,-0.049948339,9.846922694
1764757962309112320,-0.002957015,-0.007646504,-0.008439700,0.282384628,0.007148275,9.886640878
1764757962314202880,-0.007050695,-0.007091738,-0.009923490,0.319119801,0.021935184,9.947973211
1764757962319305472,-0.008742269,-0.007167052,-0.007932605,0.368235899,-0.052673207,9.865850440
1764757962324408320,-0.006561276,-0.006459219,-0.010363326,0.295263708,-0.030896270,9.915525906
1764757962329550336,-0.006865048,-0.010824967,-0.009706120,0.328677271,-0.097580981,9.869281437
1764757962334671872,-0.006112671,-0.007597939,-0.009798624,0.409228481,0.006515770,9.990413598
1764757962339808512,-0.003738336,-0.009949901,-0.008786697,0.374685445,-0.028776224,9.806993959
1764757962344945664,-0.010964137,-0.007060941,-0.006211561,0.399228518,0.033033219,9.850619805
1764757962350082816,-0.006398986,-0.007138256,-0.006356270,0.345130042,-0.035065917,9.916374475
1764757962355248640,-0.008091250,-0.008568251,-0.006233590,0.421882157,-0.047364643,9.956072073
1764757962360463104,-0.008148687,-0.003699178,-0.004269900,0.256462776,-0.044714176,9.898548534
1764757962365694976,-0.008901737,-0.006401524,-0.008811931,0.383875534,-0.048315184,9.885632063
1764757962370847744,-0.005675875,-0.007830209,-0.008042333,0.312231127,-0.052999322,9.819161453
1764757962375961088,-0.009805627,-0.006438788,-0.007910486,0.335165444,-0.117275358,9.831814183
1764757962381126144,-0.009675429,-0.010612545,-0.009673052,0.377062862,0.071700656,9.873832572
1764757962386342656,-0.008597689,-0.009658994,-0.006471661,0.267415794,0.032217978,9.940347627
1764757962391474944,-0.006027088,-0.009895621,-0.009671401,0.229678962,0.005882716,9.894528941
1764757962396616960,-0.008463214,-0.010710604,-0.007506696,0.248605549,-0.029206409,9.929779234
1764757962401762560,-0.010306966,-0.007319094,-0.006419539,0.357934239,-0.020623092,9.905478865
1764757962406903552,-0.006206005,-0.006328921,-0.007664537,0.401491936,0.020078635,9.952459183
1764757962412091648,-0.010184296,-0.010821569,-0.007566809,0.303471842,-0.016896529,9.931949548
1764757962417263616,-0.009619448,-0.006263841,-0.005772733,0.349471157,-0.030513690,9.879613988
1764757962422480640,-0.007223944,-0.012486866,-0.006576069,0.448276013,-0.141275335,9.955024129
1764757962427734784,-0.007054284,-0.008625534,-0.006248653,0.349764794,-0.054981438,9.888840684
1764757962432953856,-0.005053167,-0.008356764,-0.009263365,0.344256790,-0.091005439,9.949707535
1764757962438176000,-0.004287861,-0.006810842,-0.004845455,0.307715896,0.015929487,9.868672216
1764757962443423488,-0.009794875,-0.008185586,-0.010105936,0.364511832,-0.036998504,9.895232860
1764757962448615168,-0.005945358,-0.010483817,-0.009061287,0.409314356,0.012251378,9.908767544
1764757962453831680,-0.006829929,-0.009610650,-0.008850735,0.337565667,-0.020418115,9.987471842
1764757962459058688,-0.006503523,-0.010671224,-0.005057879,0.275169974,-0.042308669,9.971657779
1764757962464273920,-0.006840783,-0.009903314,-0.012022358,0.424684747,-0.006728725,9.896220231
1764757962469469952,-0.006690458,-0.007626821,-0.010488394,0.348515609,0.048818040,9.814372606
1764757962474664960,-0.008364060,-0.008962793,-0.010275156,0.486268875,-0.063649245,10.021653499
1764757962479880448,-0.011294623,-0.008016363,-0.009737060,0.423233546,0.024367184,9.913099716
1764757962485049600,-0.009740089,-0.007028354,-0.009258243,0.352739972,0.062286552,9.827899557
1764757962490206976,-0.010223565,-0.010841958,-0.005773859,0.367711182,0.092423049,9.875718189
1764757962495360256,-0.009784926,-0.007193535,-0.007653382,0.389388680,-0.099477047,9.840787121
1764757962500524288,-0.008695739,-0.008272279,-0.007918403,0.358755895,0.047377991,9.849480509
1764757962505646080,-0.006091453,-0.008262034,-0.011077641,0.437567845,0.003396646,9.826613031
1764757962510780416,-0.009168008,-0.007787214,-0.009862142,0.417369753,0.072950081,9.895884596
1764757962515945216,-0.006343061,-0.008382954,-0.012726693,0.430716178,-0.003946012,9.856435900
1764757962521099264,-0.007478977,-0.008445333,-0.007534667,0.360616058,0.072573127,9.908986659
1764757962526314752,-0.010024751,-0.008955731,-0.006668788,0.436850532,0.026560699,9.962352314
1764757962531611392,-0.011356690,-0.011960123,-0.012495577,0.402471218,0.017559990,9.927958676
1764757962536798464,-0.008669339,-0.006449717,-0.011140233,0.342669683,0.007381202,9.915193214
1764757962541928960,-0.007651150,-0.009631022,-0.003711911,0.419640465,0.008668696,9.906398775
1764757962547110400,-0.006179783,-0.009264216,-0.009948293,0.395537975,0.063846236,9.866231208
1764757962552336896,-0.010400885,-0.009381345,-0.009200478,0.402601381,0.038128463,9.881630431
1764757962557509376,-0.008221848,-0.008258568,-0.011188903,0.325815187,0.032381144,9.868862821
1764757962562654464,-0.010260578,-0.009325995,-0.007984262,0.416473209,0.056079964,9.904074813
1764757962567798272,-0.008005292,-0.009405080,-0.007191516,0.419292241,-0.021692734,9.924213211
1764757962572925440,-0.008374630,-0.007803687,-0.009328975,0.420503399,0.122052025,9.909750403
1764757962578088704,-0.011665483,-0.008272003,-0.007167259,0.401879060,0.025075353,9.811715723
1764757962583317248,-0.008294704,-0.009427603,-0.011667901,0.417010717,0.054257111,9.878382291
1764757962588452352,-0.006840514,-0.008205131,-0.007414644,0.340521928,0.061759163,9.892040693
1764757962593647360,-0.007405862,-0.008314660,-0.007064046,0.407283339,0.015535163,9.813738522
1764757962598851072,-0.011500000,-0.006869932,-0.007494637,0.417899906,0.005939604,9.844381871
1764757962604012032,-0.006671911,-0.006049726,-0.007739446,0.432232489,0.047871055,9.963007441
1764757962609151744,-0.009860891,-0.007690895,-0.007944754,0.462586436,-0.052038774,9.849766516
1764757962614296064,-0.008839623,-0.011107536,-0.008673945,0.370897225,0.022248871,9.867159183
1764757962619516928,-0.006363344,-0.007862783,-0.010527333,0.354551688,0.088041379,9.944338046
1764757962624659712,-0.007984928,-0.009624332,-0.009056470,0.417403250,0.023589695,9.942169500
1764757962629871360,-0.007178420,-0.008715629,-0.007206932,0.308830287,0.037459457,9.880198627
1764757962635054080,-0.007849750,-0.007994230,-0.010213305,0.369277520,0.046546900,9.993799678
1764757962640207872,-0.009140111,-0.006071694,-0.009694302,0.326933994,0.038264289,9.875003780
1764757962645344256,-0.009337637,-0.008709659,-0.008693717,0.406688131,0.087986992,9.836429421
1764757962650482432,-0.007474638,-0.005009811,-0.006511169,0.333360612,0.095371616,9.910606631
1764757962655752448,-0.005742573,-0.009283931,-0.010561844,0.313016051,0.093211570,9.903966060
1764757962660898304,-0.008808373,-0.008676736,-0.008367581,0.459143223,0.106051836,9.809986942
1764757962666083584,-0.010813728,-0.011015552,-0.008447107,0.412925991,0.115006674,9.858248066
1764757962671245824,-0.007566109,-0.007055072,-0.005879384,0.382712954,0.151820166,9.878116591
1764757962676353024,-0.008277862,-0.008236090,-0.005382990,0.506346438,0.108253198,9.866539166
1764757962681466880,-0.008214905,-0.009453188,-0.008919407,0.353742795,0.063500979,9.924867599
1764757962686632960,-0.007658494,-0.007914405,-0.009247162,0.368087138,0.074788231,9.933416913
1764757962691855616,-0.009161934,-0.008428298,-0.011059220,0.420741324,0.207638616,9.841229463
1764757962696994048,-0.006114625,-0.009038763,-0.009045096,0.494918803,0.031247446,9.892984374
1764757962702237440,-0.011340744,-0.010427399,-0.005252263,0.395222887,0.129743261,9.896838086
1764757962707468800,-0.007700337,-0.009519654,-0.007158493,0.384099286,0.045343102,9.891555509
1764757962712650240,-0.008598581,-0.009835476,-0.007508697,0.423839277,0.113654239,9.930439095
1764757962717826816,-0.010627260,-0.008261406,-0.009140704,0.480743531,0.046367738,9.931619896
1764757962722983936,-0.006974204,-0.007415856,-0.005927676,0.278413923,0.044521121,9.931486198
1764757962728153344,-0.011382778,-0.008384963,-0.007856858,0.284946573,0.118169101,9.887935675
1764757962733294848,-0.005072555,-0.008505277,-0.010059428,0.342032135,0.075395957,9.933203625
1764757962738403840,-0.006874175,-0.009966214,-0.007701930,0.407547743,0.160673283,9.901794868
1764757962743524352,-0.008965508,-0.009116056,-0.007909423,0.440375783,0.096330606,9.813046608
1764757962748658688,-0.010858861,-0.009260370,-0.010156608,0.393616009,0.117827814,9.879766802
1764757962753795584,-0.008005911,-0.007961804,-0.009048593,0.483796796,0.150789889,9.831441265
1764757962758982144,-0.008438159,-0.007743282,-0.008635198,0.329100447,0.143571748,9.741831621
1764757962764165120,-0.009061735,-0.012461673,-0.007030371,0.397386640,0.203841321,9.838282840
1764757962769339904,-0.005987594,-0.010556437,-0.011107009,0.279146169,0.141078947,9.841017693
1764757962774555392,-0.009951822,-0.008955342,-0.004433483,0.326324480,0.126305851,9.841191678
1764757962779967488,-0.008816986,-0.008263232,-0.007081049,0.503032587,0.170087899,9.977907932
1764757962785179136,-0.008752560,-0.009431200,-0.007007599,0.409178127,0.084736041,9.773619282
1764757962790351360,-0.007594307,-0.008440803,-0.008128524,0.438101382,0.158296233,9.889475316
1764757962795606784,-0.003277160,-0.009975454,-0.008012498,0.421489281,0.217612532,9.844090903
1764757962800778496,-0.009829744,-0.006592081,-0.007800226,0.488955069,0.181890656,9.883504447
1764757962805987072,-0.008647044,-0.012529218,-0.008941833,0.357194064,0.119246667,9.793569255
1764757962811240960,-0.007415473,-0.008704624,-0.005619593,0.439525262,0.178815405,9.728433562
1764757962816438784,-0.009976617,-0.009157320,-0.006730217,0.367407764,0.141570083,9.852408935
1764757962821655296,-0.010062878,-0.009638652,-0.007049297,0.326137301,0.145564625,9.760969480
1764757962826915840,-0.006865114,-0.005303483,-0.006202086,0.356386489,0.205050286,9.778561370
1764757962832093696,-0.005680500,-0.009457467,-0.005237798,0.404791543,0.163410116,9.854146545
1764757962837207040,-0.010650320,-0.007482787,-0.009422527,0.424433501,0.127227058,9.925314565
1764757962842522368,-0.009138516,-0.009478669,-0.006709194,0.444990294,0.117308498,9.844528509
1764757962847691776,-0.009511613,-0.005025108,-0.006600836,0.324790071,0.131040919,9.892708208
1764757962852827136,-0.008507369,-0.008330554,-0.005385001,0.401618133,0.108042673,9.869733481
1764757962857976320,-0.008526933,-0.008334717,-0.008689930,0.361711906,0.123047037,9.826010824
1764757962863128576,-0.010986169,-0.008180171,-0.005536444,0.322536206,0.185481601,9.802818685
1764757962868278016,-0.009773810,-0.008786041,-0.007814703,0.459082668,0.109882143,9.746023703
1764757962873409536,-0.009836376,-0.012204959,-0.004767421,0.371972848,0.063499226,9.773763769
1764757962878532608,-0.009939850,-0.007681064,-0.008353720,0.337181624,0.164113198,9.866101157
1764757962883657472,-0.009419245,-0.011307173,-0.008628087,0.284792024,0.201606530,9.889266478
1764757962888825344,-0.008711703,-0.010245317,-0.005383855,0.336340661,0.181008970,9.813964652
1764757962893995264,-0.009179245,-0.009949421,-0.003407498,0.330127489,0.231856533,9.817380362
1764757962899168512,-0.006258765,-0.010454597,-0.002248610,0.456116505,0.189047029,9.747740394
1764757962904345344,-0.006652043,-0.008492756,-0.006303459,0.442586613,0.283980159,9.869501138
1764757962909523712,-0.007468988,-0.009743745,-0.005217484,0.304792770,0.229788413,9.861822883
1764757962914697216,-0.013196826,-0.007607175,-0.007726509,0.344359744,0.166350494,9.890390993
1764757962919913472,-0.009444005,-0.009413107,-0.006843897,0.421293434,0.217625129,9.841162266
1764757962925100544,-0.006350375,-0.010166994,-0.007138959,0.302757329,0.233756722,9.803479641
1764757962930221568,-0.006288560,-0.010462132,-0.003347286,0.361155147,0.127380438,9.919374808
1764757962935460096,-0.006466695,-0.009048487,-0.005716807,0.354150659,0.169453183,9.805435422
1764757962940600576,-0.006954405,-0.011544324,-0.004758652,0.304998414,0.144033350,9.789992352
1764757962945805056,-0.011769726,-0.007593377,-0.002853894,0.355894255,0.267648125,9.839578320
1764757962950932992,-0.006352760,-0.007963863,-0.005942494,0.330645493,0.232589657,9.849607419
1764757962956157952,-0.009901759,-0.012017479,-0.005845219,0.349627983,0.229578798,9.928983052
1764757962961324288,-0.008849461,-0.008619562,-0.002034351,0.357490880,0.249819744,9.735005459
1764757962966803968,-0.004364548,-0.006909137,-0.004861537,0.382478414,0.240683008,9.751908863
1764757962971971840,-0.009911219,-0.010724055,-0.006810010,0.432096328,0.260652268,9.758980140
1764757962977142272,-0.006055240,-0.009730161,-0.003982954,0.417532352,0.167070317,9.819997146
1764757963335018240,0.000000000,0.000000000,0.000000000,0.087717056,-0.023784280,0.125118017
1764757962983305984,-0.007407703,-0.011010596,-0.004707007,0.451422689,0.173363270,9.859914772
1764757963341000704,0.150734916,0.050067428,0.075633779,0.087717056,-0.023784280,0.125118017
1764757962989330432,-0.010529134,-0.006203776,-0.002826713,0.404632508,0.159570934,9.818058334
1764757963348112128,0.150734916,0.050067428,0.075633779,0.087717056,-0.023784280,0.125118017
1764757962994866688,-0.009602265,-0.008555178,-0.001303024,0.364592909,0.209791007,9.891132951
1764757963000050432,-0.003239492,-0.005809958,-0.005594415,0.282347007,0.110261141,9.769905708
1764757963355943936,0.150734916,0.050067428,0.075633779,0.087717056,-0.023784280,0.125118017
1764757963358577664,0.150734916,0.050067428,0.075633779,0.087717056,-0.023784280,0.125118017
1764757963005321216,-0.012856608,-0.007718540,-0.005421125,0.232703371,0.249964105,9.833524373
1764757963363037184,0.150734916,0.050067428,0.075633779,0.087717056,-0.023784280,0.125118017
1764757963010924800,-0.009294390,-0.008696143,-0.001742167,0.363191357,0.202121633,9.751992492
1764757963365553664,0.150734916,0.050067428,0.075633779,0.087717056,-0.023784280,0.125118017
1764757963367935488,0.150734916,0.050067428,0.075633779,0.141940117,0.018160224,-0.053672791
1764757963016580608,-0.005932079,-0.003851656,-0.005274851,0.351862715,0.240667145,9.818726523
1764757963372225792,0.150734916,0.050067428,0.075633779,0.141940117,0.018160224,-0.053672791
1764757963376131328,0.150734916,0.050067428,0.075633779,0.141940117,0.018160224,-0.053672791
1764757963022016512,-0.008860206,-0.008551854,-0.001276865,0.253973108,0.242906025,9.748327603
1764757963379762432,0.150734916,0.050067428,0.075633779,0.141940117,0.018160224,-0.053672791
1764757963027411200,-0.009392198,-0.008486548,-0.002843204,0.241012074,0.196991214,9.766822243
1764757963381840640,0.150734916,0.050067428,0.075633779,0.141940117,0.018160224,-0.053672791
1764757963383741440,0.150734916,0.050067428,0.075633779,0.141940117,0.018160224,-0.053672791
1764757963032896256,-0.007870582,-0.010082888,0.001202656,0.357513798,0.359508581,9.809818205
1764757963385628672,0.150734916,0.050067428,0.075633779,0.141940117,0.018160224,-0.053672791
1764757963390891008,0.150734916,0.050067428,0.075633779,0.141940117,0.018160224,-0.053672791
1764757963392437504,0.150734916,0.050067428,0.075633779,0.141940117,0.018160224,-0.053672791
1764757963038169344,-0.007015122,-0.011063153,-0.002250547,0.356191623,0.227149441,9.786729386
1764757963395249152,0.150734916,0.050067428,0.075633779,0.141940117,0.018160224,-0.053672791
1764757963397346304,0.150734916,0.050067428,0.075633779,0.141940117,0.018160224,-0.053672791
1764757963043225856,-0.007281558,-0.005499333,-0.003118183,0.311803019,0.291387755,9.785214035
1764757963400159232,0.150734916,0.050067428,0.075633779,0.141940117,0.018160224,-0.053672791
1764757963048713216,-0.008607672,-0.005149739,-0.005014811,0.392313614,0.216741683,9.838622703
1764757963403089920,0.150734916,0.050067428,0.075633779,0.141940117,0.018160224,-0.053672791
1764757963406059520,0.150734916,0.050067428,0.075633779,0.141940117,0.018160224,-0.053672791
1764757963054065152,-0.010132587,-0.007597927,-0.003349633,0.345540921,0.194385380,9.838486100
1764757963059225344,-0.005953511,-0.005990376,-0.004087411,0.261313154,0.289126383,9.782729775
1764757963409033216,0.150734916,0.050067428,0.075633779,0.141940117,0.018160224,-0.053672791
1764757963414741504,0.150734916,0.050067428,0.075633779,0.141940117,0.018160224,-0.053672791
1764757963417421824,0.150734916,0.050067428,0.075633779,0.094578743,0.021912813,0.042745829
1764757963065123328,-0.007741153,-0.005314751,-0.000276062,0.345273451,0.214670929,9.737905742
1764757963419861504,0.150734916,0.050067428,0.075633779,0.094578743,0.021912813,0.042745829
1764757963424229632,0.150734916,0.050067428,0.075633779,0.094578743,0.021912813,0.042745829
1764757963070711552,-0.010786180,-0.008168552,-0.003491733,0.199467484,0.209269331,9.715942998
1764757963427150592,0.150734916,0.050067428,0.075633779,0.094578743,0.021912813,0.042745829
1764757963431570688,0.113983296,0.013848438,0.052730590,0.094578743,0.021912813,0.042745829
1764757963076759808,-0.008996727,-0.008761044,-0.003598720,0.317087995,0.225412432,9.816965137
1764757963433648384,0.113983296,0.013848438,0.052730590,0.094578743,0.021912813,0.042745829
1764757963436609280,0.113983296,0.013848438,0.052730590,0.094578743,0.021912813,0.042745829
1764757963082368512,-0.007093652,-0.005888284,-0.001481442,0.277651791,0.276969821,9.885528734
1764757963439548160,0.113983296,0.013848438,0.052730590,0.094578743,0.021912813,0.042745829
1764757963441871360,0.113983296,0.013848438,0.052730590,0.094578743,0.021912813,0.042745829
1764757963087524096,-0.009249659,-0.007924706,-0.001419627,0.333719762,0.274837675,9.764645384
1764757963444458752,0.113983296,0.013848438,0.052730590,0.094578743,0.021912813,0.042745829
1764757963447366912,0.113983296,0.013848438,0.052730590,0.094578743,0.021912813,0.042745829
1764757963092740864,-0.006704001,-0.006334799,-0.001046693,0.307842994,0.274350762,9.766076450
1764757963449943040,0.113983296,0.013848438,0.052730590,0.094578743,0.021912813,0.042745829
1764757963098009856,-0.007719830,-0.009268990,-0.004760009,0.283843548,0.213861998,9.800811667
1764757963453049600,0.113983296,0.013848438,0.052730590,0.094578743,0.021912813,0.042745829
1764757963104048384,-0.010483672,-0.009961630,-0.000650860,0.319082641,0.187557012,9.780832545
1764757963457611520,0.113983296,0.013848438,0.052730590,0.094578743,0.021912813,0.042745829
1764757963460431104,0.102798022,0.046339005,0.093743272,0.056617737,0.199430108,-0.102021694
1764757963463884288,0.102798022,0.046339005,0.093743272,0.056617737,0.199430108,-0.102021694
1764757963109349888,-0.004512448,-0.007522441,-0.001257571,0.373559867,0.230206068,9.742426730
1764757963466356480,0.102798022,0.046339005,0.093743272,0.056617737,0.199430108,-0.102021694
1764757963468740352,0.102798022,0.046339005,0.093743272,0.056617737,0.199430108,-0.102021694
1764757963115277312,-0.005228130,-0.004889989,-0.003984633,0.352090382,0.321977421,9.795263742
1764757963471133696,0.102798022,0.046339005,0.093743272,0.056617737,0.199430108,-0.102021694
1764757963473150208,0.102798022,0.046339005,0.093743272,0.056617737,0.199430108,-0.102021694
1764757963120543232,-0.007953635,-0.006733880,-0.001567730,0.334166657,0.233436485,9.691747414
1764757963476060160,0.098004326,0.035686359,0.123570681,0.056617737,0.199430108,-0.102021694
1764757963477908736,0.098004326,0.035686359,0.123570681,0.056617737,0.199430108,-0.102021694
1764757963479843328,0.098004326,0.035686359,0.123570681,0.056617737,0.199430108,-0.102021694
1764757963126462464,-0.007837825,-0.007365683,-0.002706796,0.266387967,0.221855854,9.730906760
1764757963481750016,0.098004326,0.035686359,0.123570681,0.056617737,0.199430108,-0.102021694
1764757963485118464,0.098004326,0.035686359,0.123570681,0.056617737,0.199430108,-0.102021694
1764757963132038656,-0.004971637,-0.007067257,-0.001359556,0.308495066,0.279615294,9.828148348
1764757963487797760,0.098004326,0.035686359,0.123570681,0.056617737,0.199430108,-0.102021694
1764757963491106304,0.098004326,0.035686359,0.123570681,0.056617737,0.199430108,-0.102021694
1764757963138007040,-0.006582385,-0.008427119,-0.005186490,0.277320099,0.293479402,9.809424020
1764757963494834688,0.098004326,0.035686359,0.123570681,0.056617737,0.199430108,-0.102021694
1764757963143842816,-0.008063355,-0.008382313,-0.000957165,0.303463093,0.223020036,9.851118112
1764757963497629184,0.098004326,0.035686359,0.123570681,0.056617737,0.199430108,-0.102021694
1764757963500988416,0.098004326,0.035686359,0.123570681,0.056617737,0.199430108,-0.102021694
1764757963503244544,0.111852765,0.007456851,0.136353850,0.033333778,0.129273891,0.033640862
1764757963149930240,-0.008819325,-0.008935288,-0.002561449,0.220963426,0.155304903,9.688492829
1764757963505090560,0.111852765,0.007456851,0.136353850,0.033333778,0.129273891,0.033640862
1764757963506868736,0.111852765,0.007456851,0.136353850,0.033333778,0.129273891,0.033640862
1764757963509427968,0.111852765,0.007456851,0.136353850,0.033333778,0.129273891,0.033640862
1764757963155944192,-0.008167243,-0.009405945,0.000734712,0.228436673,0.284103127,9.667386400
1764757963511102208,0.144343331,0.031425301,0.140614912,0.033333778,0.129273891,0.033640862
1764757963513218048,0.144343331,0.031425301,0.140614912,0.033333778,0.129273891,0.033640862
1764757963515402752,0.144343331,0.031425301,0.140614912,0.033333778,0.129273891,0.033640862
1764757963161271296,-0.008580947,-0.005452044,-0.000055728,0.330703142,0.266754167,9.833213955
1764757963517417984,0.144343331,0.031425301,0.140614912,0.033333778,0.129273891,0.033640862
1764757963166471936,-0.009757352,-0.007336032,0.000092543,0.310693647,0.296266159,9.751120199
1764757963521640448,0.144343331,0.031425301,0.140614912,0.033333778,0.129273891,0.033640862
1764757963524250624,0.144343331,0.031425301,0.140614912,0.033333778,0.129273891,0.033640862
1764757963172034304,-0.007677046,-0.009218291,-0.000363184,0.252036139,0.289459715,9.697686340
1764757963526952704,0.144343331,0.031425301,0.140614912,0.033333778,0.129273891,0.033640862
1764757963529317632,0.144343331,0.031425301,0.140614912,0.033333778,0.129273891,0.033640862
1764757963177921792,-0.008740584,-0.007632276,-0.004372329,0.251811656,0.297143051,9.750281357
1764757963532995584,0.144343331,0.031425301,0.140614912,0.033333778,0.129273891,0.033640862
1764757963183705344,-0.005784596,-0.007658953,0.001076333,0.287438005,0.245428902,9.735959843
1764757963538022400,0.170442313,0.071905352,0.142745435,0.056480408,-0.021134973,0.020716906
1764757963541260544,0.170442313,0.071905352,0.142745435,0.056480408,-0.021134973,0.020716906
1764757963188842240,-0.007277829,-0.009993968,-0.000080543,0.306475990,0.311803724,9.729994393
1764757963544917760,0.170442313,0.071905352,0.142745435,0.056480408,-0.021134973,0.020716906
1764757963194597888,-0.007773922,-0.006844259,-0.000923781,0.149957557,0.489661161,9.773577359
1764757963546414592,0.170442313,0.071905352,0.142745435,0.056480408,-0.021134973,0.020716906
1764757963548225280,0.170442313,0.071905352,0.142745435,0.056480408,-0.021134973,0.020716906
1764757963550710528,0.170442313,0.071905352,0.142745435,0.056480408,-0.021134973,0.020716906
1764757963554086656,0.170974940,0.068709560,0.145941228,0.056480408,-0.021134973,0.020716906
1764757963200005632,-0.006102567,-0.006873678,0.000279674,0.224163256,0.237154591,9.761996588
1764757963557035264,0.170974940,0.068709560,0.145941228,0.056480408,-0.021134973,0.020716906
1764757963206005760,-0.006301422,-0.006044852,0.002251891,0.137809706,0.199759612,9.778302331
1764757963560814592,0.170974940,0.068709560,0.145941228,0.056480408,-0.021134973,0.020716906
1764757963564294400,0.130494893,0.014381070,0.151800185,0.049503326,-0.013567924,-0.234822750
1764757963211748352,-0.008290402,-0.007143877,0.002850415,0.279268312,0.329883012,9.733392711
1764757963216898560,-0.007281741,-0.010048670,0.000666382,0.297859464,0.351236975,9.773365558
1764757963222043904,-0.008402712,-0.011905804,0.001180901,0.226208806,0.369656599,9.767579990
1764757963578464512,0.130494893,0.014381070,0.151800185,0.049503326,-0.013567924,-0.234822750
1764757963228083200,-0.005975424,-0.007757990,0.003523767,0.272155724,0.295572076,9.676191096
1764757963585684480,0.086819053,0.014381070,0.151267558,0.049503326,-0.013567924,-0.234822750
1764757963233618176,-0.005978574,-0.012224171,-0.003292414,0.214835815,0.324865690,9.702974035
1764757963589402112,0.086819053,0.014381070,0.151267558,0.049503326,-0.013567924,-0.234822750
1764757963592981760,0.086819053,0.014381070,0.151267558,0.049503326,-0.013567924,-0.234822750
1764757963239332096,-0.007488168,-0.008636799,0.000588672,0.283026935,0.237502102,9.724611767
1764757963596028160,0.086819053,0.014381070,0.151267558,0.049503326,-0.013567924,-0.234822750
1764757963598201856,0.086819053,0.014381070,0.151267558,0.049503326,-0.013567924,-0.234822750
1764757963245393408,-0.007395949,-0.010287499,0.000515784,0.203606678,0.402197764,9.737515086
1764757963601134080,0.086819053,0.014381070,0.151267558,0.049503326,-0.013567924,-0.234822750
1764757963603565568,0.086819053,0.014381070,0.151267558,0.049503326,-0.013567924,-0.234822750
1764757963251176192,-0.006454899,-0.007528550,-0.000484612,0.144399415,0.352081923,9.745822459
1764757963605906688,0.086819053,0.014381070,0.151267558,0.049503326,-0.013567924,-0.234822750
1764757963610128640,0.086819053,0.014381070,0.151267558,0.049503326,-0.013567924,-0.234822750
1764757963256864512,-0.005213883,-0.006716088,0.000254146,0.151508596,0.406570921,9.792721159
1764757963612851200,0.073503248,0.036751624,0.131560162,0.029403687,-0.173850656,-0.042179108
1764757963615490816,0.073503248,0.036751624,0.131560162,0.029403687,-0.173850656,-0.042179108
1764757963262270976,-0.009099500,-0.008215258,0.001584985,0.204802929,0.353286081,9.780169634
1764757963618959360,0.073503248,0.036751624,0.131560162,0.029403687,-0.173850656,-0.042179108
1764757963268084992,-0.007548040,-0.011394318,0.001053541,0.212155367,0.341627359,9.792102710
1764757963623315456,0.073503248,0.036751624,0.131560162,0.029403687,-0.173850656,-0.042179108
1764757963625871360,0.073503248,0.036751624,0.131560162,0.029403687,-0.173850656,-0.042179108
1764757963273436160,-0.007303863,-0.007478228,0.002846237,0.267890489,0.295572742,9.691986196
1764757963629187072,0.073503248,0.036751624,0.131560162,0.029403687,-0.173850656,-0.042179108
1764757963631623936,0.073503248,0.036751624,0.131560162,0.029403687,-0.173850656,-0.042179108
1764757963278693120,-0.006245956,-0.008405805,0.004928626,0.153984057,0.327572308,9.768051516
1764757963635084288,0.082557999,0.015446335,0.077764302,0.029403687,-0.173850656,-0.042179108
1764757963284448512,-0.005245146,-0.008049904,0.000267019,0.260138209,0.367832593,9.725029526
1764757963639504896,0.082557999,0.015446335,0.077764302,0.029403687,-0.173850656,-0.042179108
1764757963642488064,0.082557999,0.015446335,0.077764302,0.029403687,-0.173850656,-0.042179108
1764757963290183168,-0.007841510,-0.007727530,0.001911875,0.229807365,0.289041611,9.725794173
1764757963646357760,0.082557999,0.015446335,0.077764302,0.029403687,-0.173850656,-0.042179108
1764757963649467392,0.082557999,0.015446335,0.077764302,0.029403687,-0.173850656,-0.042179108
1764757963296068608,-0.006920602,-0.010689402,0.002334178,0.277175820,0.407054778,9.654161552
1764757963651989248,0.082557999,0.015446335,0.077764302,0.029403687,-0.173850656,-0.042179108
1764757963654765824,0.082557999,0.015446335,0.077764302,0.029403687,-0.173850656,-0.042179108
1764757963301197312,-0.005593807,-0.008058108,0.001243930,0.235961145,0.367363421,9.644277105
1764757963657061376,0.082557999,0.015446335,0.077764302,0.029403687,-0.173850656,-0.042179108
1764757963660295680,0.082557999,0.015446335,0.077764302,0.029403687,-0.173850656,-0.042179108
1764757963306937344,-0.009323900,-0.005211842,0.005490941,0.107016578,0.387099005,9.724117880
1764757963663035648,0.082557999,0.015446335,0.077764302,0.029403687,-0.173850656,-0.042179108
1764757963666259712,0.082557999,0.015446335,0.077764302,0.029403687,-0.173850656,-0.042179108
1764757963312766464,-0.005521475,-0.007540604,0.003614175,0.073888903,0.314254998,9.665057933
1764757963668926208,0.082557999,0.015446335,0.077764302,0.029403687,-0.173850656,-0.042179108
1764757963671393280,0.082557999,0.015446335,0.077764302,0.029403687,-0.173850656,-0.042179108
1764757963318839296,-0.004657657,-0.004813782,0.000855916,0.191802110,0.232154637,9.728623862
1764757963674073088,0.082557999,0.015446335,0.077764302,0.029403687,-0.173850656,-0.042179108
1764757963676991744,0.105461180,-0.014913702,0.046339005,-0.007812500,-0.138153195,0.022059202
1764757963324709632,-0.006898897,-0.006381658,0.002651976,0.102783394,0.277767754,9.762743990
1764757963679430912,0.105461180,-0.014913702,0.046339005,-0.007812500,-0.138153195,0.022059202
1764757963681754624,0.105461180,-0.014913702,0.046339005,-0.007812500,-0.138153195,0.022059202
1764757963683994880,0.105461180,-0.014913702,0.046339005,-0.007812500,-0.138153195,0.022059202
1764757963330263808,-0.003227768,-0.006508328,0.002356548,0.148557065,0.418970211,9.766741886
1764757963686582016,0.105461180,-0.014913702,0.046339005,-0.007812500,-0.138153195,0.022059202
1764757963688780288,0.105461180,-0.014913702,0.046339005,-0.007812500,-0.138153195,0.022059202
1764757963335433728,-0.005900889,-0.008472353,0.005124605,0.178729763,0.486150362,9.757105518
1764757963691204864,0.105461180,-0.014913702,0.046339005,-0.007812500,-0.138153195,0.022059202
1764757963693634304,0.105461180,-0.014913702,0.046339005,-0.007812500,-0.138153195,0.022059202
1764757963696166400,0.123038046,0.019707393,0.042077947,-0.007812500,-0.138153195,0.022059202
1764757963341537024,-0.008808809,-0.005698412,0.004398546,0.197578070,0.293881252,9.807697045
1764757963698369792,0.123038046,0.019707393,0.042077947,-0.007812500,-0.138153195,0.022059202
1764757963700777984,0.123038046,0.019707393,0.042077947,-0.007812500,-0.138153195,0.022059202
1764757963347184384,-0.006222077,-0.005814250,0.002544608,0.239992214,0.345213310,9.735954974
1764757963702771200,0.123038046,0.019707393,0.042077947,-0.007812500,-0.138153195,0.022059202
1764757963705214208,0.123038046,0.019707393,0.042077947,-0.007812500,-0.138153195,0.022059202
1764757963352797440,-0.006805726,-0.007761577,0.002974300,0.197442793,0.376274552,9.788891373
1764757963707401472,0.123038046,0.019707393,0.042077947,-0.007812500,-0.138153195,0.022059202
1764757963710696704,0.123038046,0.019707393,0.042077947,-0.007812500,-0.138153195,0.022059202
1764757963712355328,0.123038046,0.019707393,0.042077947,-0.007812500,-0.138153195,0.022059202
1764757963358868992,-0.003862333,-0.006390615,0.005001954,0.171664563,0.366792461,9.612666539
1764757963714599680,0.123038046,0.019707393,0.042077947,-0.007812500,-0.138153195,0.022059202
1764757963717477120,0.123038046,0.019707393,0.042077947,-0.007812500,-0.138153195,0.022059202
1764757963364581376,-0.009340720,-0.007644897,0.000958947,0.156226011,0.396261633,9.692083159
1764757963721355520,0.117711723,0.008522116,0.023435818,-0.104903221,0.133492708,-0.010357380
1764757963369783040,-0.007040449,-0.006067207,0.004107168,0.184720497,0.295915579,9.741460083
1764757963724488192,0.117711723,0.008522116,0.023435818,-0.104903221,0.133492708,-0.010357380
1764757963726971392,0.117711723,0.008522116,0.023435818,-0.104903221,0.133492708,-0.010357380
1764757963375508480,-0.006039545,-0.006614473,0.000776610,0.176306009,0.430762874,9.715844850
1764757963729396224,0.117711723,0.008522116,0.023435818,-0.104903221,0.133492708,-0.010357380
1764757963732747008,0.117711723,0.008522116,0.023435818,-0.104903221,0.133492708,-0.010357380
1764757963381270272,-0.004059267,-0.010557206,0.005725506,0.132691874,0.367074014,9.706278401
1764757963735751168,0.117711723,0.008522116,0.023435818,-0.104903221,0.133492708,-0.010357380
1764757963738474240,0.117711723,0.008522116,0.023435818,-0.104903221,0.133492708,-0.010357380
1764757963740641280,0.112918034,0.004793690,0.038882151,-0.104903221,0.133492708,-0.010357380
1764757963386952704,-0.008192249,-0.006454714,0.005037010,0.167669136,0.281729074,9.752808443
1764757963743522304,0.112918034,0.004793690,0.038882151,-0.104903221,0.133492708,-0.010357380
1764757963745990144,0.112918034,0.004793690,0.038882151,-0.104903221,0.133492708,-0.010357380
1764757963392828928,-0.006556636,-0.006097358,0.004005073,0.163984939,0.416386761,9.772338371
1764757963748880896,0.112918034,0.004793690,0.038882151,-0.104903221,0.133492708,-0.010357380
1764757963751371008,0.112918034,0.004793690,0.038882151,-0.104903221,0.133492708,-0.010357380
1764757963398566912,-0.006581314,-0.004094435,0.005839073,0.250963179,0.370927888,9.706332037
1764757963754297600,0.112918034,0.004793690,0.038882151,-0.104903221,0.133492708,-0.010357380
1764757963757438720,0.112918034,0.004793690,0.038882151,-0.104903221,0.133492708,-0.010357380
1764757963404444928,-0.008386555,-0.006336507,0.002197216,0.142025523,0.414251703,9.737637053
1764757963759763456,0.112918034,0.004793690,0.038882151,-0.104903221,0.133492708,-0.010357380
1764757963763192832,0.112918034,0.004793690,0.038882151,-0.104903221,0.133492708,-0.010357380
1764757963409925888,-0.005698410,-0.007871091,0.007387573,0.187001422,0.413524819,9.675271968
1764757963765828864,0.112918034,0.004793690,0.038882151,-0.104903221,0.133492708,-0.010357380
1764757963768355328,0.112918034,0.004793690,0.038882151,-0.104903221,0.133492708,-0.010357380
1764757963415201280,-0.005132484,-0.003917590,0.005369077,0.111671022,0.383128538,9.704258096
1764757963771261440,0.112918034,0.004793690,0.038882151,-0.104903221,0.133492708,-0.010357380
1764757963774076928,0.112918034,0.004793690,0.038882151,-0.104903221,0.133492708,-0.010357380
1764757963421181696,-0.006713514,-0.007060294,0.002813832,0.166164186,0.326942509,9.767106771
1764757963776920320,0.128896996,0.004793690,0.042077947,0.037839890,-0.011429965,-0.116826057
1764757963779573248,0.128896996,0.004793690,0.042077947,0.037839890,-0.011429965,-0.116826057
1764757963426288896,-0.007656627,-0.006412713,0.004440862,0.102528453,0.423977489,9.681094805
1764757963782852352,0.128896996,0.004793690,0.042077947,0.037839890,-0.011429965,-0.116826057
1764757963786361088,0.128896996,0.004793690,0.042077947,0.037839890,-0.011429965,-0.116826057
1764757963432220160,-0.007877912,-0.005656774,0.006403625,0.189175710,0.443245487,9.657361460
1764757963789305344,0.128896996,0.004793690,0.042077947,0.037839890,-0.011429965,-0.116826057
1764757963791579136,0.128896996,0.004793690,0.042077947,0.037839890,-0.011429965,-0.116826057
1764757963437308672,-0.004698253,-0.007990024,0.005571121,0.166744616,0.481650931,9.647890141
1764757963794539008,0.128896996,0.004793690,0.042077947,0.037839890,-0.011429965,-0.116826057
1764757963442978816,-0.009662779,-0.006121639,0.005890807,0.162568483,0.425962871,9.782545729
1764757963798202624,0.140082270,0.006391587,0.040480047,0.037839890,-0.011429965,-0.116826057
1764757963800476416,0.140082270,0.006391587,0.040480047,0.037839890,-0.011429965,-0.116826057
1764757963448338432,-0.005251893,-0.005501645,0.005954593,0.193043538,0.439162778,9.644346602
1764757963803606528,0.140082270,0.006391587,0.040480047,0.037839890,-0.011429965,-0.116826057
1764757963806352896,0.140082270,0.006391587,0.040480047,0.037839890,-0.011429965,-0.116826057
1764757963453885696,-0.001885118,-0.006214881,0.007410851,0.090932159,0.417013461,9.714940511
1764757963808795648,0.140082270,0.006391587,0.040480047,0.037839890,-0.011429965,-0.116826057
1764757963812363008,0.140082270,0.006391587,0.040480047,0.037839890,-0.011429965,-0.116826057
1764757963459992576,-0.006445252,-0.005864888,0.008256067,0.016455638,0.451562551,9.713762977
1764757963814784256,0.140082270,0.006391587,0.040480047,0.037839890,-0.011429965,-0.116826057
1764757963817401088,0.140082270,0.006391587,0.040480047,0.037839890,-0.011429965,-0.116826057
1764757963465432832,-0.005440687,-0.006054292,0.004147724,0.099879671,0.392695109,9.646930997
1764757963820225792,0.140082270,0.006391587,0.040480047,0.037839890,-0.011429965,-0.116826057
1764757963470881792,-0.006003560,-0.007815467,0.008824791,0.097999850,0.351637121,9.632073447
1764757963829158400,0.140082270,0.006391587,0.040480047,0.037839890,-0.011429965,-0.116826057
1764757963476513280,-0.006160882,-0.004825842,0.009014848,0.052618908,0.425196320,9.703141207
1764757963831586560,0.140082270,0.006391587,0.040480047,0.037839890,-0.011429965,-0.116826057
1764757963834465280,0.140082270,0.006391587,0.040480047,0.037839890,-0.011429965,-0.116826057
1764757963481946368,-0.005433843,-0.007336467,0.005434395,0.123829365,0.419899391,9.816375186
1764757963837259264,0.140082270,0.006391587,0.040480047,0.037839890,-0.011429965,-0.116826057
1764757963840609792,0.135821223,0.037284255,0.037284255,-0.123209000,0.006788313,-0.159784794
1764757963487548160,-0.008266143,-0.007909022,0.008706423,0.131769781,0.431791738,9.676957840
1764757963843223040,0.135821223,0.037284255,0.037284255,-0.123209000,0.006788313,-0.159784794
1764757963845594624,0.135821223,0.037284255,0.037284255,-0.123209000,0.006788313,-0.159784794
1764757963493178368,-0.002336300,-0.006793727,0.005327664,0.109507053,0.346687739,9.724967602
1764757963847932672,0.135821223,0.037284255,0.037284255,-0.123209000,0.006788313,-0.159784794
1764757963850778880,0.135821223,0.037284255,0.037284255,-0.123209000,0.006788313,-0.159784794
1764757963498407168,-0.004468893,-0.009413063,0.004863983,0.057306956,0.404201639,9.717421920
1764757963853271040,0.135821223,0.037284255,0.037284255,-0.123209000,0.006788313,-0.159784794
1764757963855353856,0.135821223,0.037284255,0.037284255,-0.123209000,0.006788313,-0.159784794
1764757963857682944,0.121972777,0.029294772,0.036751624,-0.123209000,0.006788313,-0.159784794
1764757963503707392,-0.004605112,-0.008309711,0.006265586,0.164899854,0.380001975,9.653925391
1764757963860591872,0.121972777,0.029294772,0.036751624,-0.123209000,0.006788313,-0.159784794
1764757963863174912,0.121972777,0.029294772,0.036751624,-0.123209000,0.006788313,-0.159784794
1764757963508959488,-0.002752681,-0.004184005,0.002234109,0.043630746,0.464941403,9.777212157
1764757963866042368,0.121972777,0.029294772,0.036751624,-0.123209000,0.006788313,-0.159784794
1764757963514364416,-0.006426745,-0.006155379,0.008839069,0.107434968,0.442300617,9.643338650
1764757963869037312,0.121972777,0.029294772,0.036751624,-0.123209000,0.006788313,-0.159784794
1764757963872128768,0.121972777,0.029294772,0.036751624,-0.123209000,0.006788313,-0.159784794
1764757963519748608,-0.006690058,-0.005102513,0.008329140,0.064382341,0.395671730,9.757772804
1764757963874627072,0.121972777,0.029294772,0.036751624,-0.123209000,0.006788313,-0.159784794
1764757963877913344,0.121972777,0.029294772,0.036751624,-0.123209000,0.006788313,-0.159784794
1764757963525625088,-0.006345926,-0.006511679,0.006282807,0.098821291,0.431099706,9.775943203
1764757963880106496,0.096406430,-0.010652645,0.030892670,-0.002857208,-0.167142808,-0.106053114
1764757963883106816,0.096406430,-0.010652645,0.030892670,-0.002857208,-0.167142808,-0.106053114
1764757963530957568,-0.002613909,-0.006739021,0.006589748,0.048265451,0.427528892,9.703681315
1764757963885536768,0.096406430,-0.010652645,0.030892670,-0.002857208,-0.167142808,-0.106053114
1764757963888543232,0.096406430,-0.010652645,0.030892670,-0.002857208,-0.167142808,-0.106053114
1764757963536912896,-0.004006009,-0.006486310,0.009745488,0.054968217,0.520150864,9.712416761
1764757963891809536,0.096406430,-0.010652645,0.030892670,-0.002857208,-0.167142808,-0.106053114
1764757963894128896,0.051132694,0.024501082,0.058056913,-0.002857208,-0.167142808,-0.106053114
1764757963896596480,0.051132694,0.024501082,0.058056913,-0.002857208,-0.167142808,-0.106053114
1764757963542876672,-0.006731048,-0.007745663,0.007906772,0.090521662,0.400475434,9.680657274
1764757963899206912,0.051132694,0.024501082,0.058056913,-0.002857208,-0.167142808,-0.106053114
1764757963901358848,0.051132694,0.024501082,0.058056913,-0.002857208,-0.167142808,-0.106053114
1764757963548041472,-0.005279819,-0.004973744,0.008721615,0.125497833,0.586273877,9.750477028
1764757963553200896,-0.003935715,-0.007044727,0.006115688,0.100653547,0.474743324,9.764179401
1764757963903835392,0.051132694,0.024501082,0.058056913,-0.002857208,-0.167142808,-0.106053114
1764757963905241600,0.051132694,0.024501082,0.058056913,-0.002857208,-0.167142808,-0.106053114
1764757963907595264,0.051132694,0.024501082,0.058056913,-0.002857208,-0.167142808,-0.106053114
1764757963909148160,0.051132694,0.024501082,0.058056913,-0.002857208,-0.167142808,-0.106053114
1764757963911061248,0.051132694,0.024501082,0.058056913,-0.002857208,-0.167142808,-0.106053114
1764757963558678016,-0.004101251,-0.008748831,0.005118682,0.106791223,0.518597963,9.695244764
1764757963914029056,-0.001065264,0.116113827,0.103330649,-0.180381775,-0.208023310,-0.251453400
1764757963916428288,-0.001065264,0.116113827,0.103330649,-0.180381775,-0.208023310,-0.251453400
1764757963564007168,-0.003915077,-0.003952379,0.007914412,0.030001970,0.490377979,9.730817392
1764757963919005952,-0.001065264,0.116113827,0.103330649,-0.180381775,-0.208023310,-0.251453400
1764757963921218304,-0.001065264,0.116113827,0.103330649,-0.180381775,-0.208023310,-0.251453400
1764757963924143360,-0.042077947,0.142212808,0.095341168,-0.180381775,-0.208023310,-0.251453400
1764757963569878784,-0.006753890,-0.006905963,0.008490717,0.039403354,0.418259802,9.648874907
1764757963926587136,-0.042077947,0.142212808,0.095341168,-0.180381775,-0.208023310,-0.251453400
1764757963929144576,-0.042077947,0.142212808,0.095341168,-0.180381775,-0.208023310,-0.251453400
1764757963575604480,-0.006836729,-0.006749723,0.004827480,0.069116670,0.484182858,9.712583993
1764757963931345152,-0.042077947,0.142212808,0.095341168,-0.180381775,-0.208023310,-0.251453400
1764757963934122496,-0.042077947,0.142212808,0.095341168,-0.180381775,-0.208023310,-0.251453400
1764757963581749248,-0.006681448,-0.009977921,0.004096955,0.099122525,0.408959982,9.716326207
1764757963936605440,-0.042077947,0.142212808,0.095341168,-0.180381775,-0.208023310,-0.251453400
1764757963939249664,-0.042077947,0.142212808,0.095341168,-0.180381775,-0.208023310,-0.251453400
1764757963587825408,-0.002316674,-0.005579699,0.006950804,-0.009065963,0.386397283,9.693839774
1764757963941713920,-0.042077947,0.142212808,0.095341168,-0.180381775,-0.208023310,-0.251453400
1764757963944827392,-0.042077947,0.142212808,0.095341168,-0.180381775,-0.208023310,-0.251453400
1764757963593537280,-0.002517862,-0.006645329,0.007698420,0.056774617,0.476505321,9.719084546
1764757963947821056,-0.043675844,0.104928546,0.056991648,0.147518158,-0.257995367,0.120357752
1764757963950385664,-0.043675844,0.104928546,0.056991648,0.147518158,-0.257995367,0.120357752
1764757963952771328,-0.043675844,0.104928546,0.056991648,0.147518158,-0.257995367,0.120357752
1764757963599535360,-0.002995758,-0.007989700,0.008905842,0.002107199,0.390008996,9.756672826
1764757963604737792,-0.005134341,-0.005765089,0.010761594,-0.034597312,0.492582523,9.741938811
1764757963609923072,-0.003008624,-0.007572358,0.006225510,0.104332088,0.400541797,9.729526035
1764757963963691776,-0.043675844,0.104928546,0.056991648,0.147518158,-0.257995367,0.120357752
1764757963968850688,-0.043675844,0.104928546,0.056991648,0.147518158,-0.257995367,0.120357752
1764757963615944192,-0.006384655,-0.006538945,0.005450240,0.021979419,0.500998399,9.670809422
1764757963972146432,-0.043675844,0.104928546,0.056991648,0.147518158,-0.257995367,0.120357752
1764757963974518784,-0.007989483,0.129962265,0.029827405,0.147518158,-0.257995367,0.120357752
1764757963621629184,-0.003627138,-0.003785093,0.008010432,0.001534552,0.462240354,9.715354945
1764757963979740672,-0.007989483,0.129962265,0.029827405,0.147518158,-0.257995367,0.120357752
1764757963627503360,-0.002986558,-0.005534253,0.007468617,0.042465921,0.489425852,9.691721500
1764757963983353344,-0.007989483,0.129962265,0.029827405,0.147518158,-0.257995367,0.120357752
1764757963633313280,-0.004191232,-0.003336830,0.010746598,-0.033191049,0.498948524,9.782034522
1764757963986395392,-0.007989483,0.129962265,0.029827405,0.147518158,-0.257995367,0.120357752
1764757963988088832,-0.007989483,0.129962265,0.029827405,0.147518158,-0.257995367,0.120357752
1764757963989686272,-0.007989483,0.129962265,0.029827405,0.147518158,-0.257995367,0.120357752
1764757963991422208,-0.007989483,0.129962265,0.029827405,0.147518158,-0.257995367,0.120357752
1764757963639350016,-0.001665052,-0.006177028,0.005585023,0.033417270,0.477127896,9.769982452
1764757963993472512,-0.027164243,0.265250862,0.061252706,-0.202080727,-0.205171406,-0.353072166
1764757963996521728,-0.027164243,0.265250862,0.061252706,-0.202080727,-0.205171406,-0.353072166
1764757963645380096,-0.003934201,-0.006438094,0.010941709,0.008291898,0.481256098,9.668967457
1764757964000161792,-0.027164243,0.265250862,0.061252706,-0.202080727,-0.205171406,-0.353072166
1764757964004980224,-0.027164243,0.265250862,0.061252706,-0.202080727,-0.205171406,-0.353072166
1764757963651240704,-0.002477631,-0.007992252,0.005724823,0.028126074,0.434283671,9.794349518
1764757964008486656,-0.027164243,0.265250862,0.061252706,-0.202080727,-0.205171406,-0.353072166
1764757963656399360,-0.003612565,-0.009097201,0.006536595,-0.079687808,0.370854638,9.744589205
1764757964011600896,-0.027164243,0.265250862,0.061252706,-0.202080727,-0.205171406,-0.353072166
1764757963661956096,-0.003423261,-0.007105107,0.008199074,-0.034136553,0.439166684,9.690629283
1764757964014934272,-0.027164243,0.265250862,0.061252706,-0.202080727,-0.205171406,-0.353072166
1764757964020690688,-0.100134857,0.319579333,0.109722242,-0.202080727,-0.205171406,-0.353072166
1764757963668040192,-0.003913187,-0.008313004,0.004361513,-0.023676750,0.385207741,9.624503971
1764757963673158400,-0.002177435,-0.003023240,0.007632021,-0.047749840,0.511928211,9.782916258
1764757964023668224,-0.100134857,0.319579333,0.109722242,-0.202080727,-0.205171406,-0.353072166
1764757964025313024,-0.100134857,0.319579333,0.109722242,-0.202080727,-0.205171406,-0.353072166
1764757964027124736,-0.100134857,0.319579333,0.109722242,0.223923683,-0.178348303,0.220016479
1764757964029088512,-0.132092789,0.154995978,0.101200126,0.223923683,-0.178348303,0.220016479
1764757964031679488,-0.132092789,0.154995978,0.101200126,0.223923683,-0.178348303,0.220016479
1764757963678508288,-0.002047470,-0.005437651,0.008728864,-0.027766768,0.535457234,9.723382158
1764757963683645952,-0.002990076,-0.010675005,0.008342704,-0.072863494,0.470805060,9.760447271
1764757964035353344,-0.132092789,0.154995978,0.101200126,0.223923683,-0.178348303,0.220016479
1764757964039218688,-0.132092789,0.154995978,0.101200126,0.223923683,-0.178348303,0.220016479
1764757964041413888,-0.132092789,0.154995978,0.101200126,0.223923683,-0.178348303,0.220016479
1764757963689485568,-0.005114116,-0.004655902,0.007424363,0.007197611,0.385704932,9.791957941
1764757964044606976,-0.132092789,0.154995978,0.101200126,0.223923683,-0.178348303,0.220016479
1764757964048733440,-0.117179088,0.094808534,0.078296937,0.223923683,-0.178348303,0.220016479
1764757963695423744,-0.002998541,-0.006133968,0.011356654,-0.003700489,0.443355304,9.637084015
1764757964052623104,-0.117179088,0.094808534,0.078296937,0.223923683,-0.178348303,0.220016479
1764757963701014528,-0.001696640,-0.006985736,0.005601899,-0.057258564,0.492090244,9.709236906
1764757964055687680,-0.117179088,0.094808534,0.078296937,0.223923683,-0.178348303,0.220016479
1764757964058533888,-0.117179088,0.094808534,0.078296937,0.223923683,-0.178348303,0.220016479
1764757963706993152,-0.000841324,-0.006550259,0.011630831,-0.012861340,0.499901337,9.737617113
1764757964063324416,-0.117179088,0.094808534,0.078296937,0.223923683,-0.178348303,0.220016479
1764757963713058048,-0.003088946,-0.007713151,0.007952407,-0.067674126,0.457569268,9.660771572
1764757964066902784,-0.117179088,0.094808534,0.078296937,0.223923683,-0.178348303,0.220016479
1764757964070672896,-0.117179088,0.094808534,0.078296937,0.223923683,-0.178348303,0.220016479
1764757963718347520,-0.002879633,-0.006511869,0.009670356,-0.095972422,0.488128323,9.708698785
1764757964074308352,-0.117179088,0.094808534,0.078296937,0.223923683,-0.178348303,0.220016479
1764757963724199424,-0.002889786,-0.002717918,0.006308381,-0.027012299,0.498092383,9.768945540
1764757964079943936,-0.083090626,0.254598200,0.105993815,-0.066709518,-0.245557606,0.196030378
1764757963729693952,-0.004190330,-0.004777485,0.009395822,-0.136503161,0.490557474,9.699655727
1764757964084178944,-0.087884314,0.641821861,0.191214964,-0.230397224,-0.075976074,0.404350519
1764757964086860032,-0.087884314,0.641821861,0.191214964,-0.230397224,-0.075976074,0.404350519
1764757964089483776,-0.059654810,0.447943717,0.185356021,-0.230397224,-0.075976074,0.404350519
1764757963735650816,-0.003835020,-0.005948409,0.009700037,0.035149077,0.535165075,9.644269483
1764757964093982464,-0.059654810,0.447943717,0.185356021,-0.230397224,-0.075976074,0.404350519
1764757963741146624,-0.001796823,-0.005398625,0.009172784,0.050898913,0.449187780,9.751462472
1764757964098018560,-0.059654810,0.447943717,0.185356021,-0.230397224,-0.075976074,0.404350519
1764757963746789120,-0.002743492,-0.006124191,0.007264218,-0.056421164,0.458542410,9.767419710
1764757964101224448,-0.059654810,0.447943717,0.185356021,-0.230397224,-0.075976074,0.404350519
1764757964104584448,-0.059654810,0.447943717,0.185356021,-0.230397224,-0.075976074,0.404350519
1764757963752563712,-0.005617485,-0.002851118,0.008059117,-0.083780630,0.420541230,9.701289594
1764757964108671744,-0.077764302,0.132092789,0.018109497,0.447739601,-0.187395185,0.290293932
1764757963758556416,-0.001702011,-0.005193894,0.008039931,-0.128668612,0.460158994,9.790358617
1764757964111518976,-0.077764302,0.132092789,0.018109497,0.447739601,-0.187395185,0.290293932
1764757963763902464,-0.000451879,-0.005826436,0.005806856,-0.011674244,0.492844848,9.679973076
1764757964116291072,-0.077764302,0.132092789,0.018109497,0.447739601,-0.187395185,0.290293932
1764757964120973824,-0.077764302,0.132092789,0.018109497,0.447739601,-0.187395185,0.290293932
1764757963769549568,0.000130553,-0.006523193,0.008618138,-0.085923255,0.536748868,9.750552760
1764757964124982016,-0.077764302,0.132092789,0.018109497,0.447739601,-0.187395185,0.290293932
1764757963775146240,-0.000627441,-0.006021672,0.007570109,-0.018915149,0.493454826,9.752047131
1764757964130685184,-0.077764302,0.132092789,0.018109497,0.447739601,-0.187395185,0.290293932
1764757963780331264,-0.000826765,-0.008264614,0.011080030,-0.124175192,0.450676035,9.689089474
1764757964134127872,-0.077764302,0.132092789,0.018109497,0.447739601,-0.187395185,0.290293932
1764757964138465536,-0.077764302,0.132092789,0.018109497,0.447739601,-0.187395185,0.290293932
1764757963785699840,-0.000547066,-0.006072753,0.007043812,-0.081671046,0.586452037,9.841347834
1764757964144264192,-0.077764302,0.132092789,0.018109497,0.447739601,-0.187395185,0.290293932
1764757963791525120,-0.003243523,-0.003725519,0.008941487,-0.019006837,0.501696529,9.720617377
1764757964147103488,-0.077764302,0.132092789,0.018109497,0.447739601,-0.187395185,0.290293932
1764757963797044480,-0.002016964,-0.005482186,0.010036492,0.019762064,0.477021484,9.709507268
1764757964152320256,-0.077764302,0.132092789,0.018109497,0.447739601,-0.187395185,0.290293932
1764757964154769408,-0.034088463,0.019174760,0.001065264,0.050104141,0.004936278,0.305667639
1764757963802173184,-0.000602749,-0.004697006,0.008761618,-0.057633666,0.441901340,9.687457107
1764757964157791744,-0.034088463,0.019174760,0.001065264,0.050104141,0.004936278,0.305667639
1764757964160402432,-0.034088463,0.019174760,0.001065264,0.050104141,0.004936278,0.305667639
1764757963807431424,-0.002419878,-0.006023914,0.007374718,0.016921114,0.398961435,9.680818622
1764757964164154624,0.007456851,-0.001065264,0.011717909,0.050104141,0.004936278,0.305667639
1764757963812605440,-0.004805868,-0.004255848,0.011442600,-0.106640281,0.505126724,9.768589839
1764757964167622912,0.007456851,-0.001065264,0.011717909,0.050104141,0.004936278,0.305667639
1764757964170342912,0.007456851,-0.001065264,0.011717909,0.050104141,0.004936278,0.305667639
1764757963818018304,-0.001282810,-0.006150733,0.005575668,-0.091691806,0.424255411,9.802927148
1764757964172836096,0.007456851,-0.001065264,0.011717909,0.050104141,0.004936278,0.305667639
1764757964176700672,0.007456851,-0.001065264,0.011717909,0.050104141,0.004936278,0.305667639
1764757963824037888,-0.001476893,-0.003563308,0.007143795,-0.072267822,0.456947518,9.844849157
1764757964180732672,0.007456851,-0.001065264,0.011717909,0.050104141,0.004936278,0.305667639
1764757963829235968,-0.000174294,-0.006254262,0.009613134,-0.086262364,0.559695981,9.796144676
1764757964184324608,0.007456851,-0.001065264,0.011717909,0.050104141,0.004936278,0.305667639
1764757964187407872,0.007456851,-0.001065264,0.011717909,0.050104141,0.004936278,0.305667639
1764757964189304320,0.007456851,-0.001065264,0.011717909,0.050104141,0.004936278,0.305667639
1764757963835013632,0.001255353,-0.001483059,0.011902684,-0.056510871,0.480359921,9.760025371
1764757964191343360,0.007456851,-0.001065264,0.011717909,0.050104141,0.004936278,0.305667639
1764757964194777600,0.007456851,-0.001065264,0.011717909,0.050104141,0.004936278,0.305667639
1764757963840584704,-0.003167247,-0.004754238,0.012310363,-0.139849389,0.445832281,9.781191087
1764757964196666368,0.007456851,-0.001065264,0.011717909,0.050104141,0.004936278,0.305667639
1764757963846703360,-0.001604119,-0.003764134,0.009915277,-0.127178033,0.540072882,9.761423954
1764757964198759680,0.007456851,-0.001065264,0.011717909,0.050104141,0.004936278,0.305667639
1764757964206268672,-0.012250541,0.065513767,0.014913702,0.032081604,-0.062250197,-0.166874170
1764757963852134400,-0.001186891,-0.006962754,0.007125192,-0.180670014,0.523641595,9.780804428
1764757964208997632,-0.012250541,0.065513767,0.014913702,0.032081604,-0.062250197,-0.166874170
1764757964211424768,-0.012250541,0.065513767,0.014913702,0.032081604,-0.062250197,-0.166874170
1764757963858047744,-0.002041523,-0.005364933,0.011090613,-0.150455402,0.472232071,9.768503111
1764757964213965568,-0.012250541,0.065513767,0.014913702,0.032081604,-0.062250197,-0.166874170
1764757964216767744,-0.012250541,0.065513767,0.014913702,0.032081604,-0.062250197,-0.166874170
1764757963863878656,-0.002833527,-0.006648657,0.007125956,-0.101859799,0.489436964,9.799663391
1764757964219635712,-0.012250541,0.065513767,0.014913702,0.032081604,-0.062250197,-0.166874170
1764757964222878464,-0.012250541,0.065513767,0.014913702,0.032081604,-0.062250197,-0.166874170
1764757963869010432,-0.003286577,-0.005596839,0.010797301,-0.058187264,0.518282984,9.677051393
1764757964227921664,-0.051665325,0.047404267,-0.001597897,0.032081604,-0.062250197,-0.166874170
1764757963874877952,-0.000060001,-0.006277281,0.006392685,-0.083106185,0.469392116,9.713442177
1764757964230607360,-0.051665325,0.047404267,-0.001597897,0.032081604,-0.062250197,-0.166874170
1764757963880217344,-0.000835276,-0.003914911,0.010778173,-0.147466007,0.446109139,9.796205711
1764757963885362176,-0.003004015,-0.005931608,0.008739252,-0.047966543,0.500553200,9.837332739
1764757964234322176,-0.051665325,0.047404267,-0.001597897,0.032081604,-0.062250197,-0.166874170
1764757964236681472,-0.051665325,0.047404267,-0.001597897,0.032081604,-0.062250197,-0.166874170
1764757964238861056,-0.051665325,0.047404267,-0.001597897,0.032081604,-0.062250197,-0.166874170
1764757964240743936,-0.051665325,0.047404267,-0.001597897,0.032081604,-0.062250197,-0.166874170
1764757964242822400,-0.051665325,0.047404267,-0.001597897,0.032081604,-0.062250197,-0.166874170
1764757964245253632,-0.051665325,0.047404267,-0.001597897,0.032081604,-0.062250197,-0.166874170
1764757963890849280,0.002452098,-0.004056569,0.010019600,-0.134500911,0.410751681,9.641707960
1764757964247887616,-0.051665325,0.047404267,-0.001597897,0.032081604,-0.062250197,-0.166874170
1764757963896417792,-0.000235219,-0.004563506,0.009303406,-0.123944842,0.453145964,9.749853639
1764757964250543616,-0.051665325,0.047404267,-0.001597897,0.032081604,-0.062250197,-0.166874170
1764757964254346496,-0.051665325,0.047404267,-0.001597897,0.032081604,-0.062250197,-0.166874170
1764757963901881344,0.004128457,-0.004566794,0.008828881,-0.091166773,0.490599875,9.738090046
1764757964258602240,-0.051665325,0.047404267,-0.001597897,0.032081604,-0.062250197,-0.166874170
1764757963907663872,-0.002717247,-0.005752510,0.007569554,-0.140506587,0.493044550,9.792678445
1764757964262662912,-0.051665325,0.047404267,-0.001597897,0.032081604,-0.062250197,-0.166874170
1764757964265286144,-0.090547480,-0.061252706,-0.045806371,0.201135635,0.052864343,-0.079596281
1764757963913262848,-0.000185769,-0.007399890,0.011691451,-0.090018151,0.454292719,9.797085857
1764757964270012416,-0.090547480,-0.061252706,-0.045806371,0.201135635,0.052864343,-0.079596281
1764757964273361408,-0.090547480,-0.061252706,-0.045806371,0.201135635,0.052864343,-0.079596281
1764757963918867968,0.000197469,-0.000924424,0.006863450,-0.128913369,0.501765308,9.851053332
1764757964275850752,-0.115048558,-0.184290752,-0.092145376,0.201135635,0.052864343,-0.079596281
1764757964278386944,-0.115048558,-0.184290752,-0.092145376,0.201135635,0.052864343,-0.079596281
1764757963923966720,0.001104991,-0.005210047,0.007643872,-0.152270829,0.424413573,9.804653682
1764757964281555968,-0.115048558,-0.184290752,-0.092145376,0.201135635,0.052864343,-0.079596281
1764757964283674880,-0.115048558,-0.184290752,-0.092145376,0.201135635,0.052864343,-0.079596281
1764757963929975040,-0.000959598,-0.004997640,0.009062721,-0.109477372,0.565866517,9.821616165
1764757964286835200,-0.115048558,-0.184290752,-0.092145376,0.201135635,0.052864343,-0.079596281
1764757964288566016,-0.115048558,-0.184290752,-0.092145376,0.201135635,0.052864343,-0.079596281
1764757963935248384,-0.000027738,-0.003496741,0.009483890,-0.064242661,0.525500941,9.909094515
1764757964291370752,-0.100134857,-0.165648624,-0.067644291,-0.039806366,0.127590537,-0.082736969
1764757964293369088,-0.100134857,-0.165648624,-0.067644291,-0.039806366,0.127590537,-0.082736969
1764757963940690432,-0.003637770,-0.006492582,0.007663036,-0.115893760,0.471691523,9.724173383
1764757964295566592,-0.100134857,-0.165648624,-0.067644291,-0.039806366,0.127590537,-0.082736969
1764757964298595584,-0.100134857,-0.165648624,-0.067644291,-0.039806366,0.127590537,-0.082736969
1764757963946242560,-0.001095366,-0.003028010,0.010132334,-0.186659636,0.416603786,9.767021476
